timestamp,acc_x,acc_y,acc_z
20,10.24239,-0.196325,0.263362
40,10.20169,-0.203507,0.263362
60,10.24,-0.203507,0.287304
80,10.24,-0.234632,0.229843
100,10.23521,-0.177171,0.289698
120,10.22564,-0.220267,0.205901
140,10.24239,-0.203507,0.241814
160,10.21127,-0.203507,0.25618
180,10.21127,-0.21069,0.270545
200,10.23521,-0.237026,0.237026
220,10.22803,-0.203507,0.241814
240,10.22803,-0.225055,0.241814
260,10.24479,-0.260968,0.234632
280,10.24,-0.181959,0.270545
300,10.22324,-0.234632,0.227449
320,10.23761,-0.21069,0.289698
340,10.22324,-0.222661,0.23942
360,10.21127,-0.184354,0.289698
380,10.23042,-0.241814,0.215478
400,10.22803,-0.186748,0.260968
420,10.22085,-0.237026,0.213084
440,10.23282,-0.208296,0.270545
460,10.21845,-0.21069,0.213084
480,10.21127,-0.19393,0.268151
500,10.23042,-0.237026,0.263362
520,10.23761,-0.191536,0.268151
540,10.20409,-0.205901,0.253785
560,10.24239,-0.229843,0.253785
580,10.21606,-0.184354,0.237026
600,10.22085,-0.215478,0.217872
620,10.24239,-0.227449,0.253785
640,10.24239,-0.232238,0.263362
660,10.22564,-0.201113,0.246603
680,10.25437,-0.25618,0.244209
700,10.23282,-0.196325,0.253785
720,10.22803,-0.208296,0.241814
740,10.22564,-0.196325,0.280122
760,10.23282,-0.244209,0.234632
780,10.22803,-0.169988,0.265756
800,10.23282,-0.229843,0.222661
820,10.23521,-0.19393,0.282516
840,10.24,-0.203507,0.246603
860,10.21366,-0.205901,0.292093
880,10.22085,-0.229843,0.227449
900,10.20169,-0.19393,0.287304
920,10.23282,-0.213084,0.244209
940,10.22085,-0.23942,0.248997
960,10.22324,-0.203507,0.248997
980,10.23761,-0.23942,0.234632
1000,10.25915,-0.232238,0.248997
1020,10.21127,-0.244209,0.227449
1040,10.22324,-0.213084,0.265756
1060,10.21606,-0.169988,0.246603
1080,10.22803,-0.217872,0.272939
1100,10.22803,-0.232238,0.232238
1120,10.21845,-0.198719,0.217872
1140,10.23282,-0.220267,0.253785
1160,10.23521,-0.237026,0.253785
1180,10.22564,-0.191536,0.260968
1200,10.25437,-0.251391,0.215478
1220,10.23761,-0.203507,0.25618
1240,10.23521,-0.217872,0.227449
1260,10.22085,-0.186748,0.248997
1280,10.23042,-0.251391,0.201113
1300,10.23521,-0.160412,0.244209
1320,10.23761,-0.241814,0.270545
1340,10.23042,-0.196325,0.28491
1360,10.21366,-0.205901,0.237026
1380,10.23521,-0.217872,0.232238
1400,10.25437,-0.217872,0.23942
1420,10.21845,-0.184354,0.263362
1440,10.21366,-0.234632,0.234632
1460,10.24479,-0.205901,0.241814
1480,10.21366,-0.174777,0.248997
1500,10.24718,-0.23942,0.222661
1520,10.21606,-0.19393,0.23942
1540,10.19212,-0.217872,0.263362
1560,10.23282,-0.213084,0.263362
1580,10.21845,-0.229843,0.196325
1600,10.22564,-0.186748,0.248997
1620,10.23761,-0.263362,0.248997
1640,10.24,-0.169988,0.234632
1660,10.22085,-0.213084,0.217872
1680,10.24958,-0.225055,0.265756
1700,10.23521,-0.203507,0.227449
1720,10.21845,-0.198719,0.241814
1740,10.22085,-0.23942,0.253785
1760,10.23282,-0.198719,0.258574
1780,10.21127,-0.198719,0.227449
1800,10.23282,-0.246603,0.251391
1820,10.19691,-0.19393,0.244209
1840,10.22324,-0.229843,0.237026
1860,10.24958,-0.227449,0.275333
1880,10.23761,-0.215478,0.229843
1900,10.22803,-0.217872,0.25618
1920,10.24,-0.253785,0.241814
1940,10.23761,-0.184354,0.263362
1960,10.24,-0.234632,0.225055
1980,10.24239,-0.215478,0.311246
2000,10.22803,-0.217872,0.213084
2020,10.22324,-0.220267,0.227449
2040,10.23042,-0.229843,0.287304
2060,10.20888,-0.186748,0.23942
2080,10.21366,-0.196325,0.265756
2100,10.22803,-0.237026,0.260968
2120,10.23042,-0.19393,0.248997
2140,10.23761,-0.198719,0.251391
2160,10.24958,-0.246603,0.222661
2180,10.22564,-0.181959,0.275333
2200,10.23282,-0.237026,0.222661
2220,10.24239,-0.23942,0.258574
2240,10.22564,-0.232238,0.237026
2260,10.20648,-0.174777,0.272939
2280,10.22085,-0.241814,0.222661
2300,10.22324,-0.177171,0.258574
2320,10.21845,-0.213084,0.201113
2340,10.24239,-0.220267,0.280122
2360,10.23521,-0.237026,0.234632
2380,10.24958,-0.1652,0.246603
2400,10.22803,-0.227449,0.244209
2420,10.23042,-0.208296,0.287304
2440,10.23761,-0.203507,0.244209
2460,10.25676,-0.213084,0.272939
2480,10.24479,-0.213084,0.282516
2500,10.21845,-0.222661,0.246603
2520,10.22085,-0.21069,0.263362
2540,10.24479,-0.246603,0.265756
2560,10.21845,-0.181959,0.277727
2580,10.21606,-0.234632,0.265756
2600,10.22324,-0.225055,0.272939
2620,10.23042,-0.213084,0.205901
2640,10.23042,-0.174777,0.263362
2660,10.24,-0.253785,0.23942
2680,10.23282,-0.201113,0.263362
2700,10.23761,-0.203507,0.244209
2720,10.26155,-0.21069,0.287304
2740,10.25437,-0.225055,0.232238
2760,10.21845,-0.177171,0.272939
2780,10.21845,-0.217872,0.263362
2800,10.23282,-0.227449,0.282516
2820,10.20648,-0.217872,0.237026
2840,10.23042,-0.184354,0.248997
2860,10.23282,-0.244209,0.227449
2880,10.24718,-0.229843,0.246603
2900,10.20648,-0.189142,0.25618
2920,10.23521,-0.227449,0.244209
2940,10.23761,-0.229843,0.272939
2960,10.23282,-0.253785,0.220267
2980,10.21606,-0.181959,0.241814
3000,10.25676,-0.237026,0.246603
3020,10.21845,-0.248997,0.241814
3040,10.21606,-0.169988,0.292093
3060,10.21366,-0.232238,0.248997
3080,10.24239,-0.198719,0.287304
3100,10.21127,-0.21069,0.244209
3120,10.22324,-0.19393,0.25618
3140,10.24239,-0.253785,0.232238
3160,10.21845,-0.189142,0.287304
3180,10.22324,-0.220267,0.241814
3200,10.23761,-0.220267,0.28491
3220,10.23282,-0.232238,0.227449
3240,10.21606,-0.181959,0.253785
3260,10.21845,-0.234632,0.253785
3280,10.23042,-0.232238,0.280122
3300,10.19691,-0.181959,0.28491
3320,10.23042,-0.21069,0.225055
3340,10.25676,-0.222661,0.241814
3360,10.24958,-0.220267,0.205901
3380,10.22564,-0.186748,0.258574
3400,10.22803,-0.248997,0.23942
3420,10.23282,-0.205901,0.265756
3440,10.23282,-0.220267,0.225055
3460,10.20888,-0.177171,0.277727
3480,10.23521,-0.23942,0.234632
3500,10.24718,-0.191536,0.272939
3520,10.22085,-0.203507,0.229843
3540,10.21606,-0.179565,0.260968
3560,10.23521,-0.248997,0.208296
3580,10.24239,-0.203507,0.292093
3600,10.22324,-0.215478,0.227449
3620,10.22324,-0.196325,0.287304
3640,10.24239,-0.248997,0.251391
3660,10.24,-0.191536,0.258574
3680,10.20888,-0.19393,0.232238
3700,10.21845,-0.213084,0.246603
3720,10.23761,-0.232238,0.251391
3740,10.20888,-0.21069,0.227449
3760,10.22803,-0.196325,0.260968
3780,10.24958,-0.234632,0.244209
3800,10.25197,-0.201113,0.280122
3820,10.24958,-0.225055,0.229843
3840,10.22324,-0.174777,0.23942
3860,10.24718,-0.263362,0.237026
3880,10.20648,-0.179565,0.270545
3900,10.21606,-0.213084,0.229843
3920,10.21845,-0.184354,0.287304
3940,10.24479,-0.251391,0.241814
3960,10.26155,-0.158017,0.287304
3980,10.20648,-0.229843,0.222661
4000,10.23521,-0.222661,0.306458
4020,10.22564,-0.172383,0.23942
4040,10.22803,-0.225055,0.213084
4060,10.24479,-0.225055,0.272939
4080,10.22085,-0.172383,0.234632
4100,10.22085,-0.203507,0.227449
4120,10.24239,-0.227449,0.270545
4140,10.24479,-0.225055,0.234632
4160,10.22564,-0.19393,0.272939
4180,10.24479,-0.248997,0.229843
4200,10.23521,-0.21069,0.270545
4220,10.20409,-0.220267,0.217872
4240,10.22803,-0.184354,0.280122
4260,10.22803,-0.248997,0.215478
4280,10.22803,-0.181959,0.268151
4300,10.23042,-0.225055,0.260968
4320,10.23521,-0.205901,0.301669
4340,10.23282,-0.23942,0.225055
4360,10.21845,-0.174777,0.287304
4380,10.22085,-0.217872,0.229843
4400,10.23521,-0.220267,0.260968
4420,10.22564,-0.215478,0.248997
4440,10.20888,-0.196325,0.260968
4460,10.23761,-0.234632,0.23942
4480,10.23761,-0.225055,0.23942
4500,10.22324,-0.158017,0.227449
4520,10.23761,-0.237026,0.237026
4540,10.23521,-0.225055,0.263362
4560,10.22803,-0.232238,0.246603
4580,10.22085,-0.181959,0.277727
4600,10.24,-0.246603,0.246603
4620,10.23042,-0.198719,0.282516
4640,10.22085,-0.227449,0.232238
4660,10.22564,-0.196325,0.263362
4680,10.22085,-0.251391,0.198719
4700,10.22324,-0.160412,0.260968
4720,10.23761,-0.21069,0.203507
4740,10.22564,-0.201113,0.265756
4760,10.23761,-0.217872,0.234632
4780,10.22324,-0.205901,0.287304
4800,10.23282,-0.248997,0.246603
4820,10.24,-0.201113,0.260968
4840,10.23042,-0.191536,0.248997
4860,10.22324,-0.203507,0.237026
4880,10.23282,-0.225055,0.222661
4900,10.23282,-0.208296,0.287304
4920,10.22085,-0.208296,0.25618
4940,10.26155,-0.234632,0.232238
4960,10.23042,-0.191536,0.263362
4980,10.23761,-0.232238,0.227449
5000,10.23761,-0.208296,0.258574
5020,10.23521,-0.217872,0.241814
5040,10.21127,-0.198719,0.282516
5060,10.23042,-0.23942,0.251391
5080,10.25676,-0.213084,0.265756
5100,10.22803,-0.205901,0.23942
5120,10.22324,-0.217872,0.289698
5140,10.24,-0.272939,0.246603
5160,10.20409,-0.172383,0.275333
5180,10.21366,-0.222661,0.227449
5200,10.24239,-0.208296,0.25618
5220,10.24,-0.198719,0.205901
5240,10.23282,-0.179565,0.277727
5260,10.24958,-0.244209,0.23942
5280,10.23042,-0.181959,0.287304
5300,10.22324,-0.229843,0.25618
5320,10.24479,-0.222661,0.28491
5340,10.21606,-0.196325,0.232238
5360,10.20409,-0.201113,0.25618
5380,10.22803,-0.232238,0.237026
5400,10.23042,-0.217872,0.244209
5420,10.21606,-0.189142,0.241814
5440,10.23042,-0.23942,0.227449
5460,10.23521,-0.1652,0.263362
5480,10.22564,-0.225055,0.234632
5500,10.23761,-0.215478,0.282516
5520,10.25676,-0.244209,0.205901
5540,10.21127,-0.162806,0.28491
5560,10.22803,-0.251391,0.241814
5580,10.21845,-0.203507,0.277727
5600,10.21606,-0.213084,0.225055
5620,10.23042,-0.217872,0.280122
5640,10.25437,-0.23942,0.232238
5660,10.22803,-0.167594,0.28491
5680,10.21845,-0.229843,0.21069
5700,10.23761,-0.220267,0.258574
5720,10.22085,-0.227449,0.232238
5740,10.21845,-0.191536,0.258574
5760,10.24479,-0.241814,0.251391
5780,10.23761,-0.213084,0.237026
5800,10.20648,-0.184354,0.237026
5820,10.26155,-0.246603,0.241814
5840,10.22564,-0.203507,0.248997
5860,10.22803,-0.232238,0.234632
5880,10.24,-0.222661,0.272939
5900,10.23761,-0.244209,0.213084
5920,10.21606,-0.177171,0.246603
5940,10.23521,-0.246603,0.246603
5960,10.25197,-0.213084,0.270545
5980,10.21845,-0.21069,0.241814
6000,10.25915,-0.21069,0.289698
6020,10.21845,-0.198719,0.28491
6040,10.21845,-0.203507,0.253785
6060,10.22564,-0.208296,0.251391
6080,10.24,-0.234632,0.25618
6100,10.23521,-0.213084,0.234632
6120,10.22324,-0.186748,0.258574
6140,10.25437,-0.270545,0.225055
6160,10.21366,-0.196325,0.280122
6180,10.21127,-0.191536,0.198719
6200,10.24958,-0.198719,0.277727
6220,10.23282,-0.229843,0.213084
6240,10.23282,-0.191536,0.287304
6260,10.24479,-0.258574,0.232238
6280,10.23042,-0.201113,0.272939
6300,10.22324,-0.21069,0.225055
6320,10.22803,-0.217872,0.289698
6340,10.22803,-0.21069,0.227449
6360,10.21366,-0.198719,0.246603
6380,10.22324,-0.234632,0.232238
6400,10.24479,-0.203507,0.25618
6420,10.21845,-0.198719,0.229843
6440,10.23521,-0.248997,0.246603
6460,10.23042,-0.201113,0.244209
6480,10.22324,-0.208296,0.244209
6500,10.24239,-0.205901,0.253785
6520,10.24,-0.25618,0.220267
6540,10.20888,-0.179565,0.268151
6560,10.22085,-0.260968,0.241814
6580,10.23761,-0.201113,0.258574
6600,10.21366,-0.217872,0.203507
6620,10.23282,-0.205901,0.270545
6640,10.23521,-0.225055,0.241814
6660,10.23521,-0.174777,0.272939
6680,10.22564,-0.229843,0.225055
6700,10.24479,-0.213084,0.263362
6720,10.24239,-0.203507,0.201113
6740,10.24,-0.21069,0.265756
6760,10.22085,-0.244209,0.237026
6780,10.21127,-0.196325,0.234632
6800,10.20888,-0.201113,0.241814
6820,10.22803,-0.23942,0.263362
6840,10.24,-0.208296,0.263362
6860,10.23282,-0.222661,0.232238
6880,10.23761,-0.21069,0.287304
6900,10.25197,-0.275333,0.237026
6920,10.19451,-0.19393,0.265756
6940,10.21606,-0.248997,0.248997
6960,10.23282,-0.205901,0.268151
6980,10.20169,-0.225055,0.215478
7000,10.21845,-0.191536,0.277727
7020,10.21845,-0.215478,0.244209
7040,10.22085,-0.213084,0.272939
7060,10.22324,-0.251391,0.248997
7080,10.23521,-0.162806,0.265756
7100,10.21606,-0.244209,0.225055
7120,10.25915,-0.220267,0.270545
7140,10.21845,-0.213084,0.237026
7160,10.21366,-0.198719,0.263362
7180,10.24,-0.23942,0.222661
7200,10.23042,-0.205901,0.25618
7220,10.21845,-0.205901,0.260968
7240,10.22085,-0.215478,0.263362
7260,10.24,-0.213084,0.265756
7280,10.21366,-0.172383,0.251391
7300,10.22085,-0.201113,0.258574
7320,10.23761,-0.23942,0.258574
7340,10.24,-0.181959,0.260968
7360,10.22085,-0.248997,0.248997
7380,10.24479,-0.229843,0.25618
7400,10.22564,-0.220267,0.215478
7420,10.21845,-0.158017,0.277727
7440,10.25437,-0.258574,0.237026
7460,10.25437,-0.179565,0.277727
7480,10.23761,-0.227449,0.23942
7500,10.24958,-0.225055,0.268151
7520,10.22803,-0.237026,0.232238
7540,10.20888,-0.191536,0.280122
7560,10.23761,-0.232238,0.241814
7580,10.22564,-0.217872,0.287304
7600,10.21127,-0.198719,0.241814
7620,10.22564,-0.217872,0.258574
7640,10.22564,-0.215478,0.23942
7660,10.20888,-0.189142,0.272939
7680,10.21366,-0.21069,0.272939
7700,10.24718,-0.258574,0.258574
7720,10.21845,-0.184354,0.258574
7740,10.24479,-0.23942,0.229843
7760,10.22564,-0.23942,0.258574
7780,10.22564,-0.220267,0.222661
7800,10.20648,-0.208296,0.272939
7820,10.22803,-0.258574,0.21069
7840,10.22564,-0.167594,0.275333
7860,10.20888,-0.198719,0.246603
7880,10.24479,-0.201113,0.265756
7900,10.24239,-0.234632,0.222661
7920,10.22085,-0.184354,0.280122
7940,10.22564,-0.23942,0.268151
7960,10.24239,-0.232238,0.280122
7980,10.19691,-0.19393,0.234632
8000,10.21845,-0.220267,0.268151
8020,10.24,-0.234632,0.258574
8040,10.25915,-0.246603,0.287304
8060,10.24958,-0.215478,0.229843
8080,10.23761,-0.201113,0.289698
8100,10.24239,-0.263362,0.225055
8120,10.21127,-0.160412,0.241814
8140,10.1993,-0.227449,0.234632
8160,10.24239,-0.201113,0.258574
8180,10.23282,-0.225055,0.229843
8200,10.20409,-0.179565,0.28491
8220,10.24479,-0.237026,0.201113
8240,10.23761,-0.196325,0.260968
8260,10.21606,-0.215478,0.268151
8280,10.23042,-0.229843,0.253785
8300,10.23282,-0.217872,0.234632
8320,10.21366,-0.174777,0.270545
8340,10.23282,-0.220267,0.246603
8360,10.24239,-0.215478,0.28491
8380,10.20648,-0.169988,0.260968
8400,10.23521,-0.251391,0.222661
8420,10.24,-0.215478,0.260968
8440,10.22803,-0.229843,0.246603
8460,10.24239,-0.222661,0.270545
8480,10.23042,-0.23942,0.244209
8500,10.22564,-0.1652,0.299275
8520,10.22564,-0.234632,0.208296
8540,10.25197,-0.191536,0.280122
8560,10.21606,-0.203507,0.220267
8580,10.23521,-0.217872,0.265756
8600,10.23521,-0.23942,0.232238
8620,10.22324,-0.189142,0.268151
8640,10.21606,-0.234632,0.23942
8660,10.25197,-0.227449,0.287304
8680,10.22324,-0.205901,0.222661
8700,10.24,-0.225055,0.287304
8720,10.23042,-0.232238,0.251391
8740,10.22085,-0.215478,0.246603
8760,10.24479,-0.222661,0.253785
8780,10.24479,-0.241814,0.237026
8800,10.21845,-0.179565,0.225055
8820,10.24,-0.234632,0.23942
8840,10.24958,-0.203507,0.280122
8860,10.24239,-0.225055,0.248997
8880,10.23761,-0.162806,0.244209
8900,10.23042,-0.232238,0.241814
8920,10.21127,-0.177171,0.287304
8940,10.21606,-0.229843,0.215478
8960,10.25915,-0.21069,0.23942
8980,10.21606,-0.225055,0.23942
9000,10.22324,-0.189142,0.272939
9020,10.22564,-0.227449,0.217872
9040,10.20169,-0.184354,0.275333
9060,10.21366,-0.217872,0.229843
9080,10.24,-0.237026,0.23942
9100,10.21127,-0.167594,0.25618
9120,10.24239,-0.217872,0.241814
9140,10.25437,-0.222661,0.260968
9160,10.23282,-0.203507,0.217872
9180,10.20888,-0.21069,0.25618
9200,10.23761,-0.265756,0.232238
9220,10.22085,-0.198719,0.23942
9240,10.20648,-0.225055,0.248997
9260,10.24718,-0.222661,0.289698
9280,10.21845,-0.229843,0.25618
9300,10.23282,-0.184354,0.282516
9320,10.23761,-0.248997,0.251391
9340,10.22564,-0.196325,0.294487
9360,10.22085,-0.208296,0.246603
9380,10.23042,-0.215478,0.260968
9400,10.22324,-0.217872,0.265756
9420,10.24239,-0.186748,0.272939
9440,10.22564,-0.220267,0.258574
9460,10.24958,-0.220267,0.241814
9480,10.20648,-0.189142,0.263362
9500,10.24958,-0.222661,0.227449
9520,10.24718,-0.196325,0.246603
9540,10.24,-0.205901,0.227449
9560,10.22803,-0.215478,0.272939
9580,10.25437,-0.253785,0.244209
9600,10.22085,-0.160412,0.270545
9620,10.24479,-0.241814,0.203507
9640,10.23042,-0.205901,0.268151
9660,10.21606,-0.217872,0.23942
9680,10.23761,-0.21069,0.268151
9700,10.25915,-0.241814,0.244209
9720,10.22085,-0.172383,0.277727
9740,10.21606,-0.215478,0.258574
9760,10.23282,-0.215478,0.253785
9780,10.23282,-0.198719,0.232238
9800,10.21606,-0.205901,0.258574
9820,10.22324,-0.232238,0.260968
9840,10.23282,-0.198719,0.25618
9860,10.23521,-0.189142,0.251391
9880,10.24718,-0.263362,0.246603
9900,10.24,-0.203507,0.265756
9920,10.23042,-0.225055,0.229843
9940,10.23521,-0.205901,0.268151
9960,10.24479,-0.237026,0.246603
9980,10.21845,-0.184354,0.268151
10000,10.22803,-0.244209,0.220267
10020,10.21845,-0.196325,0.268151
10040,10.23761,-0.251391,0.23942
10060,10.1993,-0.189142,0.263362
10080,10.23282,-0.23942,0.225055
10100,10.22324,-0.189142,0.260968
10120,10.20888,-0.217872,0.23942
10140,10.25437,-0.215478,0.260968
10160,10.22803,-0.251391,0.248997
10180,10.22803,-0.19393,0.248997
10200,10.23282,-0.222661,0.234632
10220,10.23042,-0.21069,0.270545
10240,10.19451,-0.201113,0.258574
10260,10.23282,-0.215478,0.263362
10280,10.22803,-0.217872,0.289698
10300,10.23282,-0.196325,0.275333
10320,10.23282,-0.213084,0.270545
10340,10.24,-0.265756,0.213084
10360,10.23282,-0.196325,0.258574
10380,10.24,-0.227449,0.244209
10400,10.23042,-0.217872,0.277727
10420,10.22803,-0.232238,0.260968
10440,10.22803,-0.158017,0.263362
10460,10.25197,-0.244209,0.225055
10480,10.25197,-0.201113,0.294487
10500,10.22085,-0.215478,0.251391
10520,10.22564,-0.203507,0.296881
10540,10.24239,-0.229843,0.227449
10560,10.23042,-0.191536,0.282516
10580,10.21845,-0.21069,0.225055
10600,10.23761,-0.220267,0.28491
10620,10.25915,-0.234632,0.251391
10640,10.21606,-0.181959,0.28491
10660,10.24479,-0.227449,0.265756
10680,10.23042,-0.229843,0.265756
10700,10.23521,-0.184354,0.23942
10720,10.22803,-0.213084,0.25618
10740,10.26155,-0.222661,0.268151
10760,10.23042,-0.196325,0.234632
10780,10.23042,-0.196325,0.282516
10800,10.25915,-0.253785,0.241814
10820,10.24,-0.184354,0.265756
10840,10.22803,-0.225055,0.227449
10860,10.21845,-0.21069,0.28491
10880,10.21845,-0.23942,0.246603
10900,10.22564,-0.179565,0.275333
10920,10.21366,-0.244209,0.234632
10940,10.24718,-0.205901,0.301669
10960,10.20888,-0.201113,0.241814
10980,10.21366,-0.196325,0.272939
11000,10.22564,-0.232238,0.241814
11020,10.22085,-0.181959,0.241814
11040,10.25437,-0.253785,0.258574
11060,10.24479,-0.21069,0.246603
11080,10.22564,-0.232238,0.25618
11100,10.24958,-0.208296,0.268151
11120,10.22803,-0.246603,0.215478
11140,10.20888,-0.186748,0.253785
11160,10.25197,-0.225055,0.237026
11180,10.24239,-0.201113,0.265756
11200,10.21606,-0.203507,0.201113
11220,10.22324,-0.181959,0.248997
11240,10.23042,-0.258574,0.234632
11260,10.22564,-0.181959,0.28491
11280,10.23761,-0.203507,0.265756
11300,10.23761,-0.232238,0.270545
11320,10.22803,-0.237026,0.251391
11340,10.20648,-0.184354,0.25618
11360,10.21606,-0.220267,0.248997
11380,10.24958,-0.232238,0.268151
11400,10.20648,-0.186748,0.265756
11420,10.23521,-0.220267,0.251391
11440,10.24,-0.222661,0.244209
11460,10.24,-0.217872,0.232238
11480,10.23042,-0.177171,0.246603
11500,10.23282,-0.265756,0.237026
11520,10.24,-0.19393,0.270545
11540,10.21366,-0.220267,0.21069
11560,10.24239,-0.208296,0.272939
11580,10.24,-0.251391,0.229843
11600,10.23521,-0.167594,0.292093
11620,10.22564,-0.232238,0.186748
11640,10.22803,-0.201113,0.268151
11660,10.23042,-0.21069,0.244209
11680,10.23761,-0.213084,0.287304
11700,10.23282,-0.253785,0.232238
11720,10.22085,-0.205901,0.23942
11740,10.19691,-0.213084,0.203507
11760,10.22803,-0.232238,0.282516
11780,10.21127,-0.196325,0.234632
11800,10.21845,-0.19393,0.234632
11820,10.24718,-0.208296,0.253785
11840,10.24958,-0.248997,0.258574
11860,10.23761,-0.179565,0.25618
11880,10.23282,-0.23942,0.244209
11900,10.24479,-0.237026,0.268151
11920,10.22564,-0.213084,0.246603
11940,10.23761,-0.172383,0.277727
11960,10.22324,-0.246603,0.227449
11980,10.23521,-0.1652,0.263362
12000,10.23521,-0.234632,0.248997
12020,10.21845,-0.222661,0.258574
12040,10.21845,-0.21069,0.282516
12060,10.20169,-0.208296,0.25618
12080,10.22564,-0.208296,0.258574
12100,10.22803,-0.213084,0.248997
12120,10.21845,-0.203507,0.229843
12140,10.22324,-0.213084,0.222661
12160,10.26394,-0.272939,0.21069
12180,10.23761,-0.167594,0.232238
12200,10.23521,-0.222661,0.260968
12220,10.23042,-0.222661,0.253785
12240,10.25437,-0.227449,0.227449
12260,10.20888,-0.1652,0.260968
12280,10.21366,-0.229843,0.220267
12300,10.22085,-0.208296,0.275333
12320,10.20169,-0.205901,0.237026
12340,10.23521,-0.189142,0.260968
12360,10.22564,-0.248997,0.248997
12380,10.22564,-0.19393,0.280122
12400,10.22085,-0.213084,0.208296
12420,10.22564,-0.217872,0.287304
12440,10.22564,-0.21069,0.25618
12460,10.22564,-0.19393,0.253785
12480,10.23282,-0.215478,0.260968
12500,10.24239,-0.225055,0.275333
12520,10.22803,-0.169988,0.25618
12540,10.25437,-0.23942,0.237026
12560,10.22564,-0.205901,0.268151
12580,10.22324,-0.215478,0.220267
12600,10.21845,-0.21069,0.248997
12620,10.23042,-0.263362,0.241814
12640,10.23521,-0.172383,0.28491
12660,10.24239,-0.227449,0.229843
12680,10.23761,-0.205901,0.277727
12700,10.22324,-0.227449,0.217872
12720,10.21606,-0.169988,0.253785
12740,10.21845,-0.258574,0.234632
12760,10.23042,-0.19393,0.277727
12780,10.20888,-0.203507,0.215478
12800,10.22085,-0.215478,0.275333
12820,10.23761,-0.23942,0.241814
12840,10.21845,-0.208296,0.258574
12860,10.21127,-0.246603,0.227449
12880,10.24,-0.208296,0.25618
12900,10.21366,-0.198719,0.253785
12920,10.23761,-0.222661,0.234632
12940,10.24239,-0.222661,0.280122
12960,10.25676,-0.220267,0.225055
12980,10.21845,-0.196325,0.260968
13000,10.22564,-0.25618,0.229843
13020,10.22803,-0.225055,0.23942
13040,10.22564,-0.21069,0.289698
13060,10.22324,-0.227449,0.208296
13080,10.21606,-0.177171,0.265756
13100,10.24,-0.248997,0.227449
13120,10.24479,-0.205901,0.294487
13140,10.24718,-0.198719,0.225055
13160,10.21366,-0.186748,0.241814
13180,10.21366,-0.244209,0.225055
13200,10.23042,-0.201113,0.265756
13220,10.21366,-0.196325,0.270545
13240,10.23282,-0.222661,0.272939
13260,10.22803,-0.21069,0.244209
13280,10.21606,-0.203507,0.220267
13300,10.22324,-0.217872,0.248997
13320,10.24,-0.258574,0.244209
13340,10.23282,-0.1652,0.263362
13360,10.22085,-0.253785,0.246603
13380,10.24958,-0.232238,0.282516
13400,10.24,-0.253785,0.225055
13420,10.20169,-0.177171,0.25618
13440,10.21845,-0.244209,0.244209
13460,10.25437,-0.203507,0.25618
13480,10.22564,-0.217872,0.217872
13500,10.23761,-0.184354,0.289698
13520,10.25437,-0.246603,0.234632
13540,10.24,-0.201113,0.277727
13560,10.23282,-0.229843,0.237026
13580,10.25676,-0.222661,0.265756
13600,10.21127,-0.215478,0.246603
13620,10.21366,-0.1652,0.292093
13640,10.21606,-0.237026,0.25618
13660,10.24958,-0.227449,0.263362
13680,10.21366,-0.177171,0.244209
13700,10.21606,-0.220267,0.241814
13720,10.24718,-0.237026,0.268151
13740,10.24479,-0.234632,0.258574
13760,10.22564,-0.181959,0.260968
13780,10.26155,-0.258574,0.191536
13800,10.23282,-0.21069,0.301669
13820,10.21845,-0.225055,0.244209
13840,10.20169,-0.177171,0.265756
13860,10.22564,-0.270545,0.215478
13880,10.23042,-0.198719,0.260968
13900,10.22803,-0.227449,0.225055
13920,10.23521,-0.203507,0.277727
13940,10.23521,-0.246603,0.220267
13960,10.22803,-0.184354,0.289698
13980,10.21606,-0.227449,0.237026
14000,10.24,-0.217872,0.28491
14020,10.22085,-0.234632,0.222661
14040,10.21845,-0.203507,0.275333
14060,10.23282,-0.232238,0.244209
14080,10.22324,-0.186748,0.258574
14100,10.20409,-0.198719,0.220267
14120,10.23042,-0.23942,0.23942
14140,10.22085,-0.222661,0.234632
14160,10.23521,-0.203507,0.232238
14180,10.22324,-0.198719,0.222661
14200,10.25197,-0.248997,0.229843
14220,10.23521,-0.19393,0.244209
14240,10.23761,-0.229843,0.241814
14260,10.24958,-0.215478,0.287304
14280,10.24479,-0.258574,0.229843
14300,10.20888,-0.177171,0.270545
14320,10.22324,-0.246603,0.237026
14340,10.24479,-0.205901,0.301669
14360,10.21845,-0.205901,0.241814
14380,10.23282,-0.160412,0.272939
14400,10.23042,-0.263362,0.220267
14420,10.24479,-0.186748,0.275333
14440,10.21127,-0.215478,0.234632
14460,10.22324,-0.21069,0.277727
14480,10.22085,-0.244209,0.220267
14500,10.1993,-0.174777,0.248997
14520,10.22324,-0.213084,0.232238
14540,10.25676,-0.234632,0.215478
14560,10.21127,-0.21069,0.21069
14580,10.21127,-0.215478,0.227449
14600,10.22324,-0.21069,0.258574
14620,10.24958,-0.251391,0.232238
14640,10.21606,-0.196325,0.263362
14660,10.23521,-0.246603,0.263362
14680,10.23521,-0.23942,0.28491
14700,10.25437,-0.220267,0.234632
14720,10.21845,-0.179565,0.265756
14740,10.23042,-0.246603,0.220267
14760,10.24,-0.205901,0.294487
14780,10.20888,-0.208296,0.21069
14800,10.23521,-0.196325,0.270545
14820,10.24479,-0.227449,0.220267
14840,10.24,-0.179565,0.251391
14860,10.21606,-0.229843,0.21069
14880,10.24958,-0.234632,0.294487
14900,10.22085,-0.21069,0.25618
14920,10.20169,-0.174777,0.25618
14940,10.22324,-0.232238,0.244209
14960,10.24479,-0.220267,0.25618
14980,10.23042,-0.179565,0.232238
15000,10.24958,-0.229843,0.237026
15020,10.25676,-0.25618,0.23942
15040,10.22803,-0.167594,0.280122
15060,10.21845,-0.246603,0.244209
15080,10.24,-0.213084,0.272939
15100,10.20409,-0.213084,0.201113
15120,10.21366,-0.160412,0.244209
15140,10.24,-0.246603,0.225055
15160,10.23042,-0.186748,0.270545
15180,10.23042,-0.21069,0.248997
15200,10.24479,-0.213084,0.268151
15220,10.23761,-0.229843,0.203507
15240,10.20409,-0.174777,0.227449
15260,10.20888,-0.203507,0.246603
15280,10.24239,-0.234632,0.258574
15300,10.20648,-0.184354,0.258574
15320,10.23761,-0.220267,0.248997
15340,10.24958,-0.220267,0.277727
15360,10.23282,-0.244209,0.268151
15380,10.19451,-0.198719,0.265756
15400,10.23761,-0.268151,0.258574
15420,10.23282,-0.215478,0.277727
15440,10.21606,-0.215478,0.232238
15460,10.21845,-0.189142,0.265756
15480,10.23282,-0.248997,0.232238
15500,10.22803,-0.155623,0.263362
15520,10.23521,-0.225055,0.217872
15540,10.23042,-0.220267,0.263362
15560,10.22803,-0.244209,0.237026
15580,10.22564,-0.213084,0.275333
15600,10.23042,-0.23942,0.229843
15620,10.22803,-0.205901,0.265756
15640,10.21845,-0.208296,0.23942
15660,10.23761,-0.205901,0.227449
15680,10.25437,-0.23942,0.251391
15700,10.23042,-0.203507,0.237026
15720,10.22324,-0.19393,0.265756
15740,10.26155,-0.232238,0.268151
15760,10.24239,-0.196325,0.265756
15780,10.24479,-0.21069,0.213084
15800,10.24239,-0.215478,0.248997
15820,10.25197,-0.241814,0.229843
15840,10.19691,-0.186748,0.258574
15860,10.22803,-0.237026,0.213084
15880,10.23042,-0.198719,0.277727
15900,10.21366,-0.227449,0.220267
15920,10.21606,-0.150835,0.260968
15940,10.22564,-0.246603,0.232238
15960,10.25197,-0.191536,0.280122
15980,10.21845,-0.203507,0.232238
16000,10.21845,-0.198719,0.260968
16020,10.26155,-0.220267,0.260968
16040,10.25437,-0.263362,0.21069
16060,10.20409,-0.172383,0.31364
16080,10.23042,-0.237026,0.225055
16100,10.23042,-0.21069,0.294487
16120,10.21366,-0.213084,0.229843
16140,10.20648,-0.179565,0.25618
16160,10.23761,-0.234632,0.227449
16180,10.22564,-0.196325,0.292093
16200,10.23761,-0.205901,0.234632
16220,10.23282,-0.21069,0.246603
16240,10.23761,-0.232238,0.248997
16260,10.23282,-0.184354,0.270545
16280,10.21127,-0.23942,0.237026
16300,10.24479,-0.23942,0.246603
16320,10.22324,-0.205901,0.232238
16340,10.21366,-0.208296,0.23942
16360,10.22324,-0.205901,0.244209
16380,10.26634,-0.241814,0.258574
16400,10.23282,-0.189142,0.275333
16420,10.24479,-0.241814,0.229843
16440,10.24479,-0.225055,0.260968
16460,10.24239,-0.25618,0.232238
16480,10.22564,-0.167594,0.28491
16500,10.23761,-0.215478,0.229843
16520,10.22803,-0.21069,0.260968
16540,10.22085,-0.21069,0.215478
16560,10.21606,-0.162806,0.28491
16580,10.24239,-0.234632,0.227449
16600,10.24239,-0.227449,0.227449
16620,10.24,-0.215478,0.227449
16640,10.24239,-0.191536,0.28491
16660,10.22085,-0.23942,0.225055
16680,10.22564,-0.201113,0.23942
16700,10.18972,-0.198719,0.220267
16720,10.20169,-0.21069,0.246603
16740,10.23042,-0.222661,0.244209
16760,10.22803,-0.196325,0.260968
16780,10.21845,-0.189142,0.258574
16800,10.26155,-0.251391,0.258574
16820,10.24479,-0.213084,0.246603
16840,10.24479,-0.215478,0.225055
16860,10.23521,-0.203507,0.270545
16880,10.25437,-0.280122,0.237026
16900,10.22564,-0.186748,0.258574
16920,10.21845,-0.222661,0.227449
16940,10.24958,-0.217872,0.258574
16960,10.23282,-0.232238,0.220267
16980,10.23042,-0.169988,0.265756
17000,10.22803,-0.229843,0.232238
17020,10.21366,-0.225055,0.241814
17040,10.21127,-0.181959,0.296881
17060,10.23282,-0.248997,0.241814
17080,10.24958,-0.177171,0.265756
17100,10.23042,-0.229843,0.237026
17120,10.22564,-0.220267,0.28491
17140,10.24718,-0.258574,0.253785
17160,10.23761,-0.179565,0.272939
17180,10.22324,-0.234632,0.232238
17200,10.23761,-0.205901,0.28491
17220,10.23042,-0.220267,0.191536
17240,10.21366,-0.196325,0.23942
17260,10.23282,-0.237026,0.265756
17280,10.24479,-0.215478,0.234632
17300,10.21127,-0.203507,0.229843
17320,10.22324,-0.237026,0.248997
17340,10.25676,-0.215478,0.248997
17360,10.24958,-0.234632,0.234632
17380,10.22564,-0.181959,0.258574
17400,10.24239,-0.277727,0.251391
17420,10.23761,-0.203507,0.246603
17440,10.23282,-0.215478,0.201113
17460,10.21366,-0.196325,0.268151
17480,10.23521,-0.251391,0.227449
17500,10.22324,-0.155623,0.272939
17520,10.22324,-0.246603,0.265756
17540,10.25437,-0.213084,0.263362
17560,10.22324,-0.222661,0.234632
17580,10.21845,-0.208296,0.265756
17600,10.22085,-0.25618,0.234632
17620,10.22324,-0.213084,0.292093
17640,10.21606,-0.203507,0.232238
17660,10.24718,-0.237026,0.244209
17680,10.24479,-0.222661,0.25618
17700,10.21845,-0.205901,0.25618
17720,10.22085,-0.232238,0.241814
17740,10.24958,-0.248997,0.237026
17760,10.22564,-0.184354,0.270545
17780,10.23761,-0.25618,0.25618
17800,10.25197,-0.227449,0.292093
17820,10.24,-0.208296,0.227449
17840,10.21606,-0.177171,0.258574
17860,10.24239,-0.282516,0.205901
17880,10.23521,-0.1652,0.277727
17900,10.20169,-0.213084,0.227449
17920,10.23521,-0.205901,0.263362
17940,10.21606,-0.229843,0.225055
17960,10.24239,-0.203507,0.253785
17980,10.22564,-0.225055,0.234632
18000,10.21606,-0.198719,0.251391
18020,10.24,-0.251391,0.25618
18040,10.23042,-0.213084,0.263362
18060,10.24479,-0.217872,0.23942
18080,10.25915,-0.227449,0.277727
18100,10.24958,-0.248997,0.203507
18120,10.21606,-0.172383,0.23942
18140,10.24,-0.253785,0.232238
18160,10.24239,-0.198719,0.263362
18180,10.21127,-0.191536,0.246603
18200,10.24718,-0.201113,0.282516
18220,10.22564,-0.234632,0.232238
18240,10.24239,-0.169988,0.253785
18260,10.23761,-0.227449,0.229843
18280,10.22803,-0.222661,0.241814
18300,10.20648,-0.225055,0.241814
18320,10.21606,-0.19393,0.258574
18340,10.23042,-0.225055,0.237026
18360,10.23521,-0.217872,0.23942
18380,10.24,-0.184354,0.222661
18400,10.24479,-0.237026,0.244209
18420,10.24,-0.203507,0.263362
18440,10.21606,-0.208296,0.229843
18460,10.24,-0.198719,0.292093
18480,10.22803,-0.270545,0.220267
18500,10.22564,-0.179565,0.275333
18520,10.22564,-0.234632,0.251391
18540,10.24718,-0.208296,0.263362
18560,10.21606,-0.220267,0.21069
18580,10.24479,-0.184354,0.270545
18600,10.24958,-0.251391,0.184354
18620,10.23761,-0.21069,0.263362
18640,10.24718,-0.205901,0.237026
18660,10.23761,-0.222661,0.268151
18680,10.23761,-0.198719,0.215478
18700,10.20648,-0.172383,0.258574
18720,10.21366,-0.220267,0.241814
18740,10.23042,-0.208296,0.277727
18760,10.21606,-0.186748,0.253785
18780,10.24,-0.229843,0.251391
18800,10.26394,-0.227449,0.296881
18820,10.22324,-0.217872,0.220267
18840,10.21127,-0.21069,0.263362
18860,10.24239,-0.287304,0.260968
18880,10.23042,-0.201113,0.277727
18900,10.23521,-0.244209,0.213084
18920,10.24479,-0.205901,0.275333
18940,10.21366,-0.213084,0.21069
18960,10.22564,-0.186748,0.258574
18980,10.24958,-0.251391,0.229843
19000,10.24479,-0.201113,0.277727
19020,10.23042,-0.234632,0.237026
19040,10.21127,-0.189142,0.23942
19060,10.23042,-0.225055,0.265756
19080,10.23761,-0.215478,0.253785
19100,10.23042,-0.225055,0.241814
19120,10.23282,-0.196325,0.260968
19140,10.23282,-0.268151,0.227449
19160,10.22803,-0.198719,0.282516
19180,10.22564,-0.244209,0.229843
19200,10.23761,-0.201113,0.263362
19220,10.23282,-0.244209,0.232238
19240,10.22324,-0.184354,0.277727
19260,10.22803,-0.232238,0.208296
19280,10.23521,-0.215478,0.280122
19300,10.21845,-0.196325,0.237026
19320,10.21606,-0.19393,0.280122
19340,10.22085,-0.265756,0.251391
19360,10.22803,-0.208296,0.258574
19380,10.19691,-0.215478,0.244209
19400,10.23761,-0.217872,0.263362
19420,10.24239,-0.208296,0.23942
19440,10.22564,-0.191536,0.244209
19460,10.23761,-0.203507,0.232238
19480,10.26394,-0.265756,0.229843
19500,10.24,-0.19393,0.28491
19520,10.21845,-0.217872,0.222661
19540,10.24239,-0.220267,0.272939
19560,10.22564,-0.258574,0.225055
19580,10.20888,-0.167594,0.268151
19600,10.23521,-0.225055,0.23942
19620,10.24239,-0.220267,0.270545
19640,10.21845,-0.237026,0.229843
19660,10.23042,-0.179565,0.282516
19680,10.23761,-0.232238,0.203507
19700,10.23521,-0.203507,0.275333
19720,10.21127,-0.227449,0.25618
19740,10.21845,-0.203507,0.277727
19760,10.22564,-0.253785,0.237026
19780,10.22324,-0.198719,0.246603
19800,10.21127,-0.19393,0.229843
19820,10.23282,-0.196325,0.220267
19840,10.23761,-0.222661,0.270545
19860,10.23521,-0.196325,0.232238
19880,10.21845,-0.201113,0.248997
19900,10.25197,-0.244209,0.25618
19920,10.25437,-0.205901,0.263362
19940,10.23042,-0.225055,0.229843
19960,10.22803,-0.205901,0.258574
19980,10.25676,-0.272939,0.248997
20000,10.22324,-0.19393,0.265756
20020,10.21127,-0.184354,0.258574
20040,10.22803,-0.234632,0.275333
20060,10.22803,-0.217872,0.222661
20080,10.20648,-0.186748,0.263362
20100,10.23282,-0.232238,0.25618
20120,10.22085,-0.208296,0.25618
20140,10.24239,-0.222661,0.263362
20160,10.22803,-0.177171,0.23942
20180,10.23042,-0.25618,0.220267
20200,10.24958,-0.225055,0.282516
20220,10.23282,-0.201113,0.215478
20240,10.23282,-0.172383,0.265756
20260,10.25676,-0.25618,0.198719
20280,10.22803,-0.186748,0.270545
20300,10.23282,-0.229843,0.220267
20320,10.24958,-0.196325,0.282516
20340,10.24479,-0.253785,0.222661
20360,10.24479,-0.181959,0.292093
20380,10.21845,-0.227449,0.232238
20400,10.25915,-0.213084,0.260968
20420,10.24718,-0.260968,0.246603
20440,10.21366,-0.181959,0.251391
20460,10.21366,-0.215478,0.253785
20480,10.23761,-0.237026,0.260968
20500,10.23282,-0.21069,0.241814
20520,10.21606,-0.217872,0.232238
20540,10.23761,-0.227449,0.251391
20560,10.25437,-0.260968,0.220267
20580,10.22324,-0.179565,0.282516
20600,10.22564,-0.234632,0.213084
20620,10.23042,-0.217872,0.287304
20640,10.23282,-0.241814,0.248997
20660,10.22324,-0.179565,0.258574
20680,10.22324,-0.241814,0.237026
20700,10.22085,-0.21069,0.275333
20720,10.21366,-0.227449,0.208296
20740,10.23282,-0.148441,0.268151
20760,10.21606,-0.246603,0.234632
20780,10.22564,-0.213084,0.260968
20800,10.21606,-0.203507,0.260968
20820,10.23282,-0.189142,0.246603
20840,10.22564,-0.244209,0.232238
20860,10.22564,-0.205901,0.263362
20880,10.21366,-0.213084,0.21069
20900,10.22085,-0.232238,0.275333
20920,10.23042,-0.217872,0.272939
20940,10.23521,-0.201113,0.241814
20960,10.22564,-0.181959,0.253785
20980,10.24718,-0.237026,0.237026
21000,10.24479,-0.217872,0.237026
21020,10.21606,-0.205901,0.251391
21040,10.22085,-0.201113,0.251391
21060,10.24,-0.205901,0.244209
21080,10.24239,-0.25618,0.217872
21100,10.21366,-0.196325,0.270545
21120,10.23042,-0.237026,0.25618
21140,10.24,-0.222661,0.277727
21160,10.24479,-0.268151,0.237026
21180,10.21845,-0.179565,0.287304
21200,10.22803,-0.232238,0.237026
21220,10.24958,-0.208296,0.287304
21240,10.21366,-0.222661,0.205901
21260,10.23761,-0.181959,0.258574
21280,10.25197,-0.251391,0.222661
21300,10.25676,-0.196325,0.265756
21320,10.22564,-0.201113,0.222661
21340,10.22564,-0.217872,0.280122
21360,10.23761,-0.248997,0.241814
21380,10.20648,-0.19393,0.268151
21400,10.19212,-0.201113,0.23942
21420,10.23761,-0.246603,0.246603
21440,10.23042,-0.198719,0.25618
21460,10.24239,-0.205901,0.229843
21480,10.24479,-0.208296,0.275333
21500,10.25676,-0.263362,0.241814
21520,10.21845,-0.208296,0.258574
21540,10.23521,-0.205901,0.234632
21560,10.23761,-0.215478,0.268151
21580,10.24239,-0.260968,0.23942
21600,10.22085,-0.169988,0.268151
21620,10.21845,-0.217872,0.191536
21640,10.24,-0.21069,0.280122
21660,10.22085,-0.222661,0.234632
21680,10.1993,-0.169988,0.268151
21700,10.24479,-0.241814,0.215478
21720,10.24958,-0.213084,0.268151
21740,10.21366,-0.198719,0.248997
21760,10.22324,-0.186748,0.251391
21780,10.24718,-0.237026,0.208296
21800,10.23282,-0.213084,0.258574
21820,10.21606,-0.198719,0.213084
21840,10.20888,-0.222661,0.265756
21860,10.22324,-0.225055,0.244209
21880,10.22564,-0.205901,0.227449
21900,10.24718,-0.205901,0.25618
21920,10.25676,-0.248997,0.241814
21940,10.22085,-0.225055,0.277727
21960,10.21845,-0.234632,0.23942
21980,10.23042,-0.215478,0.268151
22000,10.24,-0.246603,0.225055
22020,10.22564,-0.246603,0.253785
22040,10.23282,-0.203507,0.265756
22060,10.24,-0.246603,0.25618
22080,10.24479,-0.213084,0.292093
22100,10.22803,-0.189142,0.229843
22120,10.23761,-0.184354,0.260968
22140,10.25437,-0.253785,0.215478
22160,10.21366,-0.160412,0.272939
22180,10.22085,-0.222661,0.225055
22200,10.24,-0.189142,0.258574
22220,10.24479,-0.232238,0.21069
22240,10.21606,-0.172383,0.260968
22260,10.23282,-0.246603,0.225055
22280,10.23282,-0.21069,0.260968
22300,10.23282,-0.205901,0.229843
22320,10.23521,-0.205901,0.296881
22340,10.24,-0.232238,0.260968
22360,10.22564,-0.222661,0.277727
22380,10.22803,-0.162806,0.248997
22400,10.24718,-0.225055,0.241814
22420,10.24,-0.222661,0.260968
22440,10.23042,-0.21069,0.229843
22460,10.21606,-0.196325,0.280122
22480,10.25437,-0.268151,0.23942
22500,10.23282,-0.215478,0.270545
22520,10.21366,-0.208296,0.225055
22540,10.22085,-0.189142,0.28491
22560,10.21845,-0.263362,0.265756
22580,10.23042,-0.174777,0.265756
22600,10.21606,-0.220267,0.229843
22620,10.25197,-0.213084,0.292093
22640,10.23521,-0.234632,0.234632
22660,10.22324,-0.177171,0.244209
22680,10.24,-0.229843,0.229843
22700,10.22324,-0.225055,0.258574
22720,10.22564,-0.21069,0.25618
22740,10.20409,-0.19393,0.253785
22760,10.23761,-0.227449,0.234632
22780,10.24718,-0.203507,0.258574
22800,10.20169,-0.179565,0.234632
22820,10.24,-0.241814,0.270545
22840,10.24,-0.217872,0.270545
22860,10.22085,-0.220267,0.263362
22880,10.24718,-0.222661,0.248997
22900,10.24718,-0.248997,0.251391
22920,10.22324,-0.177171,0.253785
22940,10.24479,-0.229843,0.229843
22960,10.22085,-0.215478,0.23942
22980,10.22085,-0.21069,0.217872
23000,10.21845,-0.177171,0.28491
23020,10.22564,-0.203507,0.289698
23040,10.22085,-0.23942,0.222661
23060,10.24,-0.179565,0.253785
23080,10.21606,-0.220267,0.227449
23100,10.25197,-0.217872,0.251391
23120,10.21366,-0.186748,0.241814
23140,10.24,-0.208296,0.248997
23160,10.24239,-0.234632,0.263362
23180,10.23282,-0.23942,0.220267
23200,10.21127,-0.198719,0.268151
23220,10.24479,-0.258574,0.237026
23240,10.21606,-0.201113,0.289698
23260,10.20409,-0.225055,0.241814
23280,10.22085,-0.191536,0.275333
23300,10.23282,-0.227449,0.217872
23320,10.21366,-0.179565,0.263362
23340,10.22085,-0.246603,0.203507
23360,10.26394,-0.232238,0.268151
23380,10.23282,-0.217872,0.220267
23400,10.24,-0.196325,0.25618
23420,10.24,-0.225055,0.241814
23440,10.23761,-0.198719,0.280122
23460,10.19212,-0.201113,0.244209
23480,10.24958,-0.234632,0.277727
23500,10.21366,-0.191536,0.265756
23520,10.22324,-0.21069,0.241814
23540,10.24,-0.220267,0.25618
23560,10.24718,-0.232238,0.237026
23580,10.22564,-0.203507,0.272939
23600,10.25437,-0.270545,0.227449
23620,10.22803,-0.21069,0.277727
23640,10.23761,-0.208296,0.232238
23660,10.23282,-0.21069,0.248997
23680,10.23282,-0.229843,0.246603
23700,10.21127,-0.174777,0.275333
23720,10.21845,-0.246603,0.217872
23740,10.23761,-0.220267,0.280122
23760,10.20409,-0.237026,0.213084
23780,10.21366,-0.215478,0.28491
23800,10.21606,-0.21069,0.229843
23820,10.22564,-0.189142,0.251391
23840,10.22085,-0.222661,0.23942
23860,10.24,-0.21069,0.246603
23880,10.19691,-0.191536,0.25618
23900,10.23761,-0.25618,0.23942
23920,10.23761,-0.184354,0.23942
23940,10.24,-0.232238,0.25618
23960,10.24239,-0.203507,0.263362
23980,10.23282,-0.234632,0.241814
24000,10.20648,-0.174777,0.25618
24020,10.20888,-0.205901,0.251391
24040,10.22085,-0.215478,0.232238
24060,10.23521,-0.189142,0.292093
24080,10.23042,-0.241814,0.225055
24100,10.22324,-0.184354,0.287304
24120,10.22564,-0.213084,0.241814
24140,10.24958,-0.220267,0.25618
24160,10.22564,-0.208296,0.23942
24180,10.20888,-0.181959,0.25618
24200,10.21606,-0.237026,0.246603
24220,10.23521,-0.220267,0.251391
24240,10.22564,-0.181959,0.241814
24260,10.24,-0.237026,0.217872
24280,10.23042,-0.203507,0.277727
24300,10.23042,-0.220267,0.227449
24320,10.23282,-0.222661,0.258574
24340,10.23282,-0.246603,0.248997
24360,10.20169,-0.174777,0.248997
24380,10.20409,-0.220267,0.215478
24400,10.24479,-0.208296,0.277727
24420,10.22324,-0.213084,0.215478
24440,10.23761,-0.186748,0.272939
24460,10.23282,-0.263362,0.263362
24480,10.23282,-0.186748,0.292093
24500,10.22564,-0.225055,0.237026
24520,10.25437,-0.237026,0.260968
24540,10.22564,-0.205901,0.237026
24560,10.23761,-0.181959,0.251391
24580,10.22085,-0.222661,0.25618
24600,10.24479,-0.184354,0.258574
24620,10.23282,-0.205901,0.258574
24640,10.25197,-0.253785,0.25618
24660,10.23042,-0.217872,0.277727
24680,10.24239,-0.225055,0.237026
24700,10.24479,-0.225055,0.260968
24720,10.24,-0.241814,0.244209
24740,10.20409,-0.184354,0.268151
24760,10.22564,-0.23942,0.203507
24780,10.23761,-0.196325,0.282516
24800,10.21606,-0.196325,0.217872
24820,10.23761,-0.196325,0.253785
24840,10.22564,-0.241814,0.203507
24860,10.21366,-0.191536,0.265756
24880,10.20888,-0.237026,0.232238
24900,10.24479,-0.229843,0.25618
24920,10.21606,-0.205901,0.248997
24940,10.21127,-0.198719,0.258574
24960,10.22803,-0.222661,0.282516
24980,10.22803,-0.198719,0.234632
25000,10.22324,-0.198719,0.260968
25020,10.21127,-0.196325,0.203507
25040,10.23761,-0.237026,0.246603
25060,10.23042,-0.225055,0.227449
25080,10.24239,-0.177171,0.23942
25100,10.24,-0.227449,0.232238
25120,10.23282,-0.213084,0.25618
25140,10.22324,-0.181959,0.248997
25160,10.24,-0.246603,0.237026
25180,10.25676,-0.225055,0.23942
25200,10.22564,-0.201113,0.263362
25220,10.23042,-0.191536,0.296881
25240,10.25437,-0.244209,0.258574
25260,10.21127,-0.184354,0.268151
25280,10.22324,-0.222661,0.213084
25300,10.23282,-0.201113,0.265756
25320,10.20888,-0.222661,0.203507
25340,10.21606,-0.179565,0.25618
25360,10.22085,-0.241814,0.248997
25380,10.22085,-0.208296,0.277727
25400,10.23282,-0.215478,0.227449
25420,10.23521,-0.215478,0.287304
25440,10.24479,-0.234632,0.260968
25460,10.24,-0.181959,0.248997
25480,10.23042,-0.215478,0.234632
25500,10.25437,-0.234632,0.237026
25520,10.22324,-0.198719,0.237026
25540,10.24718,-0.208296,0.251391
25560,10.23521,-0.229843,0.263362
25580,10.23521,-0.241814,0.222661
25600,10.21845,-0.186748,0.244209
25620,10.23042,-0.268151,0.232238
25640,10.22324,-0.208296,0.263362
25660,10.22085,-0.215478,0.234632
25680,10.22803,-0.191536,0.263362
25700,10.21845,-0.23942,0.25618
25720,10.21606,-0.167594,0.258574
25740,10.22564,-0.237026,0.244209
25760,10.25197,-0.232238,0.25618
25780,10.23761,-0.225055,0.229843
25800,10.21366,-0.189142,0.260968
25820,10.22803,-0.241814,0.248997
25840,10.21366,-0.203507,0.251391
25860,10.20409,-0.196325,0.237026
25880,10.23521,-0.208296,0.244209
25900,10.23042,-0.213084,0.225055
25920,10.23761,-0.191536,0.232238
25940,10.23761,-0.213084,0.258574
25960,10.25197,-0.251391,0.263362
25980,10.24,-0.179565,0.253785
26000,10.24718,-0.253785,0.23942
26020,10.23521,-0.205901,0.222661
26040,10.24718,-0.203507,0.263362
26060,10.23282,-0.217872,0.234632
26080,10.23042,-0.217872,0.260968
26100,10.25915,-0.253785,0.232238
26120,10.22803,-0.184354,0.292093
26140,10.20409,-0.234632,0.244209
26160,10.23761,-0.196325,0.301669
26180,10.22085,-0.220267,0.227449
26200,10.22564,-0.174777,0.272939
26220,10.23761,-0.225055,0.21069
26240,10.23282,-0.201113,0.280122
26260,10.20648,-0.215478,0.232238
26280,10.23282,-0.215478,0.237026
26300,10.23042,-0.237026,0.23942
26320,10.23042,-0.189142,0.244209
26340,10.21845,-0.215478,0.23942
26360,10.23282,-0.217872,0.268151
26380,10.22564,-0.213084,0.258574
26400,10.22085,-0.205901,0.222661
26420,10.22803,-0.217872,0.258574
26440,10.23521,-0.244209,0.225055
26460,10.23042,-0.181959,0.265756
26480,10.24239,-0.251391,0.241814
26500,10.21606,-0.215478,0.28491
26520,10.23761,-0.208296,0.234632
26540,10.21845,-0.201113,0.258574
26560,10.24479,-0.246603,0.246603
26580,10.23282,-0.19393,0.270545
26600,10.23042,-0.220267,0.215478
26620,10.25437,-0.225055,0.277727
26640,10.24,-0.220267,0.225055
26660,10.24239,-0.184354,0.260968
26680,10.24239,-0.248997,0.227449
26700,10.24958,-0.208296,0.244209
26720,10.19212,-0.186748,0.232238
26740,10.23042,-0.198719,0.263362
26760,10.21127,-0.237026,0.263362
26780,10.23761,-0.205901,0.248997
26800,10.23282,-0.213084,0.263362
26820,10.25437,-0.244209,0.234632
26840,10.23042,-0.189142,0.232238
26860,10.23521,-0.208296,0.222661
26880,10.23282,-0.227449,0.280122
26900,10.20648,-0.251391,0.21069
26920,10.20169,-0.179565,0.275333
26940,10.21845,-0.23942,0.220267
26960,10.23521,-0.203507,0.253785
26980,10.20888,-0.21069,0.225055
27000,10.23282,-0.196325,0.248997
27020,10.22803,-0.225055,0.205901
27040,10.24239,-0.160412,0.272939
27060,10.21127,-0.196325,0.220267
27080,10.24718,-0.222661,0.272939
27100,10.22803,-0.227449,0.227449
27120,10.21845,-0.184354,0.304064
27140,10.24,-0.251391,0.246603
27160,10.21845,-0.198719,0.275333
27180,10.21127,-0.203507,0.241814
27200,10.23521,-0.222661,0.268151
27220,10.23761,-0.237026,0.275333
27240,10.23042,-0.191536,0.251391
27260,10.23282,-0.201113,0.260968
27280,10.24,-0.282516,0.234632
27300,10.24479,-0.186748,0.25618
27320,10.21366,-0.215478,0.234632
27340,10.23282,-0.217872,0.294487
27360,10.22803,-0.237026,0.205901
27380,10.21366,-0.181959,0.268151
27400,10.22803,-0.23942,0.227449
27420,10.23521,-0.213084,0.301669
27440,10.23761,-0.215478,0.220267
27460,10.22803,-0.19393,0.277727
27480,10.24718,-0.241814,0.251391
27500,10.21606,-0.186748,0.280122
27520,10.22564,-0.208296,0.222661
27540,10.24718,-0.220267,0.277727
27560,10.22564,-0.222661,0.225055
27580,10.21606,-0.208296,0.265756
27600,10.21127,-0.215478,0.241814
27620,10.25437,-0.229843,0.253785
27640,10.21606,-0.186748,0.263362
27660,10.23761,-0.217872,0.229843
27680,10.23042,-0.213084,0.248997
27700,10.22564,-0.234632,0.237026
27720,10.22564,-0.184354,0.253785
27740,10.24718,-0.258574,0.217872
27760,10.21366,-0.189142,0.260968
27780,10.22803,-0.241814,0.227449
27800,10.23521,-0.208296,0.263362
27820,10.24479,-0.237026,0.232238
27840,10.21127,-0.1652,0.263362
27860,10.22085,-0.237026,0.222661
27880,10.24479,-0.201113,0.296881
27900,10.23282,-0.208296,0.265756
27920,10.24958,-0.198719,0.268151
27940,10.23761,-0.229843,0.217872
27960,10.20888,-0.177171,0.260968
27980,10.22324,-0.215478,0.23942
28000,10.23521,-0.234632,0.251391
28020,10.23521,-0.179565,0.280122
28040,10.22803,-0.246603,0.225055
28060,10.21845,-0.179565,0.225055
28080,10.22085,-0.205901,0.253785
28100,10.25437,-0.232238,0.258574
28120,10.21845,-0.198719,0.268151
28140,10.22803,-0.227449,0.241814
28160,10.24958,-0.227449,0.220267
28180,10.23761,-0.196325,0.220267
28200,10.21845,-0.208296,0.248997
28220,10.24239,-0.270545,0.234632
28240,10.22085,-0.179565,0.260968
28260,10.22564,-0.227449,0.241814
28280,10.24958,-0.205901,0.289698
28300,10.23282,-0.232238,0.220267
28320,10.24958,-0.181959,0.246603
28340,10.25197,-0.244209,0.220267
28360,10.24479,-0.179565,0.275333
28380,10.21366,-0.217872,0.21069
28400,10.23282,-0.227449,0.253785
28420,10.22324,-0.203507,0.220267
28440,10.21845,-0.196325,0.248997
28460,10.23282,-0.213084,0.258574
28480,10.21127,-0.191536,0.244209
28500,10.22085,-0.201113,0.263362
28520,10.25676,-0.246603,0.251391
28540,10.24239,-0.186748,0.241814
28560,10.22564,-0.229843,0.222661
28580,10.21366,-0.21069,0.260968
28600,10.22324,-0.234632,0.23942
28620,10.22085,-0.177171,0.253785
28640,10.23521,-0.244209,0.244209
28660,10.23761,-0.189142,0.268151
28680,10.23282,-0.229843,0.23942
28700,10.26155,-0.203507,0.258574
28720,10.23282,-0.213084,0.217872
28740,10.22803,-0.191536,0.258574
28760,10.23761,-0.248997,0.222661
28780,10.23521,-0.196325,0.270545
28800,10.21127,-0.189142,0.258574
28820,10.23282,-0.21069,0.237026
28840,10.21606,-0.205901,0.241814
28860,10.22803,-0.213084,0.227449
28880,10.23521,-0.229843,0.292093
28900,10.24239,-0.225055,0.23942
28920,10.21845,-0.191536,0.25618
28940,10.24479,-0.241814,0.220267
28960,10.23282,-0.198719,0.265756
28980,10.22564,-0.232238,0.198719
29000,10.22085,-0.201113,0.277727
29020,10.23282,-0.201113,0.251391
29040,10.24239,-0.260968,0.215478
29060,10.20169,-0.184354,0.275333
29080,10.22085,-0.227449,0.217872
29100,10.23521,-0.189142,0.268151
29120,10.23761,-0.222661,0.234632
29140,10.24,-0.208296,0.304064
29160,10.23521,-0.225055,0.251391
29180,10.24479,-0.181959,0.263362
29200,10.23042,-0.222661,0.237026
29220,10.22803,-0.208296,0.268151
29240,10.1993,-0.201113,0.229843
29260,10.23521,-0.220267,0.25618
29280,10.24239,-0.237026,0.251391
29300,10.24718,-0.203507,0.280122
29320,10.22564,-0.23942,0.270545
29340,10.22803,-0.253785,0.23942
29360,10.20888,-0.184354,0.260968
29380,10.24,-0.234632,0.244209
29400,10.23042,-0.227449,0.275333
29420,10.22085,-0.220267,0.203507
29440,10.22803,-0.203507,0.25618
29460,10.22085,-0.251391,0.244209
29480,10.22803,-0.174777,0.265756
29500,10.24239,-0.225055,0.225055
29520,10.23761,-0.213084,0.260968
29540,10.22324,-0.213084,0.232238
29560,10.22324,-0.201113,0.268151
29580,10.24479,-0.232238,0.23942
29600,10.22564,-0.177171,0.25618
29620,10.23761,-0.229843,0.222661
29640,10.24,-0.220267,0.234632
29660,10.21127,-0.181959,0.251391
29680,10.25437,-0.253785,0.244209
29700,10.25915,-0.229843,0.241814
29720,10.23761,-0.217872,0.222661
29740,10.23042,-0.205901,0.277727
29760,10.24239,-0.23942,0.241814
29780,10.23042,-0.179565,0.260968
29800,10.23761,-0.23942,0.222661
29820,10.24718,-0.184354,0.237026
29840,10.22803,-0.19393,0.234632
29860,10.24958,-0.198719,0.301669
29880,10.24,-0.23942,0.225055
29900,10.20888,-0.213084,0.244209
29920,10.24718,-0.244209,0.241814
29940,10.24239,-0.205901,0.253785
29960,10.20888,-0.203507,0.232238
29980,10.23761,-0.215478,0.246603
30000,10.21606,-0.19393,0.258574
30020,10.24,-0.229843,0.272939
30040,10.21845,-0.213084,0.265756
30060,10.24,-0.225055,0.251391
30080,10.26394,-0.253785,0.263362
30100,10.22085,-0.177171,0.275333
30120,10.22324,-0.253785,0.241814
30140,10.22803,-0.184354,0.268151
30160,10.21127,-0.213084,0.203507
30180,10.22085,-0.186748,0.28491
30200,10.22564,-0.234632,0.227449
30220,10.22803,-0.186748,0.277727
30240,10.22564,-0.246603,0.225055
30260,10.24,-0.213084,0.28491
30280,10.21845,-0.217872,0.265756
30300,10.24958,-0.225055,0.28491
30320,10.20888,-0.225055,0.260968
30340,10.22324,-0.215478,0.241814
30360,10.21366,-0.220267,0.253785
30380,10.23761,-0.251391,0.265756
30400,10.21606,-0.189142,0.277727
30420,10.24718,-0.246603,0.251391
30440,10.23521,-0.234632,0.246603
30460,10.22085,-0.201113,0.213084
30480,10.22803,-0.198719,0.275333
30500,10.25915,-0.248997,0.232238
30520,10.22564,-0.162806,0.258574
30540,10.23042,-0.258574,0.198719
30560,10.23521,-0.217872,0.258574
30580,10.22324,-0.208296,0.220267
30600,10.21606,-0.217872,0.280122
30620,10.24,-0.241814,0.258574
30640,10.21366,-0.189142,0.280122
30660,10.22324,-0.203507,0.263362
30680,10.23042,-0.232238,0.265756
30700,10.22564,-0.220267,0.251391
30720,10.22803,-0.208296,0.248997
30740,10.25915,-0.21069,0.253785
30760,10.22564,-0.196325,0.220267
30780,10.21366,-0.232238,0.270545
30800,10.22803,-0.258574,0.268151
30820,10.20409,-0.186748,0.270545
30840,10.22085,-0.241814,0.222661
30860,10.24,-0.201113,0.294487
30880,10.22085,-0.203507,0.220267
30900,10.22803,-0.160412,0.282516
30920,10.24958,-0.246603,0.23942
30940,10.21606,-0.172383,0.251391
30960,10.23042,-0.225055,0.251391
30980,10.23521,-0.205901,0.270545
31000,10.24,-0.222661,0.217872
31020,10.22803,-0.177171,0.246603
31040,10.23282,-0.248997,0.246603
31060,10.22324,-0.184354,0.280122
31080,10.21127,-0.208296,0.215478
31100,10.21366,-0.201113,0.246603
31120,10.19691,-0.198719,0.25618
31140,10.22324,-0.21069,0.260968
31160,10.24,-0.220267,0.225055
31180,10.22085,-0.201113,0.217872
31200,10.21845,-0.184354,0.23942
31220,10.25676,-0.244209,0.25618
31240,10.24,-0.196325,0.25618
31260,10.24718,-0.244209,0.244209
31280,10.22324,-0.222661,0.260968
31300,10.24718,-0.277727,0.215478
31320,10.22803,-0.203507,0.277727
31340,10.24479,-0.244209,0.232238
31360,10.21606,-0.1652,0.260968
31380,10.22085,-0.234632,0.215478
31400,10.23521,-0.196325,0.25618
31420,10.23282,-0.205901,0.229843
31440,10.23042,-0.205901,0.275333
31460,10.22803,-0.251391,0.225055
31480,10.23761,-0.19393,0.253785
31500,10.20409,-0.21069,0.234632
31520,10.25437,-0.229843,0.248997
31540,10.24479,-0.189142,0.253785
31560,10.22564,-0.205901,0.272939
31580,10.24239,-0.234632,0.275333
31600,10.23282,-0.215478,0.222661
31620,10.23042,-0.186748,0.287304
31640,10.24958,-0.265756,0.213084
31660,10.20648,-0.19393,0.25618
31680,10.22324,-0.237026,0.248997
31700,10.24479,-0.213084,0.282516
31720,10.21366,-0.201113,0.234632
31740,10.22324,-0.189142,0.270545
31760,10.24,-0.258574,0.237026
31780,10.24958,-0.174777,0.263362
31800,10.22085,-0.222661,0.220267
31820,10.21845,-0.208296,0.265756
31840,10.20888,-0.196325,0.220267
31860,10.23042,-0.208296,0.25618
31880,10.20888,-0.234632,0.227449
31900,10.21845,-0.19393,0.217872
31920,10.24,-0.181959,0.248997
31940,10.24239,-0.253785,0.237026
31960,10.22085,-0.19393,0.272939
31980,10.22803,-0.227449,0.260968
32000,10.24239,-0.225055,0.294487
32020,10.23042,-0.217872,0.28491
32040,10.1993,-0.225055,0.23942
32060,10.21845,-0.203507,0.28491
32080,10.23042,-0.237026,0.244209
32100,10.25197,-0.177171,0.241814
32120,10.21366,-0.234632,0.225055
32140,10.22564,-0.203507,0.28491
32160,10.20888,-0.205901,0.241814
32180,10.22324,-0.222661,0.268151
32200,10.24718,-0.23942,0.222661
32220,10.22085,-0.184354,0.268151
32240,10.22803,-0.217872,0.268151
32260,10.23761,-0.227449,0.237026
32280,10.21606,-0.184354,0.215478
32300,10.21606,-0.208296,0.234632
32320,10.23042,-0.208296,0.25618
32340,10.23282,-0.215478,0.251391
32360,10.21606,-0.215478,0.292093
32380,10.23761,-0.25618,0.232238
32400,10.22085,-0.172383,0.253785
32420,10.22324,-0.246603,0.220267
32440,10.22085,-0.189142,0.263362
32460,10.22085,-0.201113,0.225055
32480,10.24,-0.208296,0.265756
32500,10.22564,-0.23942,0.232238
32520,10.21127,-0.169988,0.289698
32540,10.21606,-0.225055,0.253785
32560,10.23761,-0.225055,0.270545
32580,10.1993,-0.184354,0.225055
32600,10.21845,-0.169988,0.268151
32620,10.24239,-0.225055,0.258574
32640,10.24,-0.186748,0.234632
32660,10.24479,-0.225055,0.234632
32680,10.23761,-0.260968,0.251391
32700,10.23282,-0.174777,0.241814
32720,10.22803,-0.234632,0.232238
32740,10.22803,-0.229843,0.265756
32760,10.22564,-0.215478,0.232238
32780,10.21845,-0.198719,0.28491
32800,10.22803,-0.232238,0.234632
32820,10.22564,-0.203507,0.280122
32840,10.23282,-0.23942,0.244209
32860,10.26155,-0.220267,0.275333
32880,10.22085,-0.213084,0.229843
32900,10.22085,-0.213084,0.258574
32920,10.21606,-0.229843,0.25618
32940,10.21606,-0.189142,0.244209
32960,10.21127,-0.222661,0.234632
32980,10.24958,-0.23942,0.258574
33000,10.22324,-0.196325,0.234632
33020,10.24958,-0.189142,0.258574
33040,10.25197,-0.270545,0.253785
33060,10.20888,-0.184354,0.272939
33080,10.24239,-0.215478,0.263362
33100,10.24958,-0.196325,0.268151
33120,10.21845,-0.234632,0.213084
33140,10.21845,-0.191536,0.275333
33160,10.24,-0.253785,0.217872
33180,10.23761,-0.186748,0.260968
33200,10.25197,-0.227449,0.217872
33220,10.24,-0.220267,0.268151
33240,10.21845,-0.222661,0.244209
33260,10.22564,-0.21069,0.270545
33280,10.23521,-0.227449,0.23942
33300,10.25676,-0.208296,0.232238
33320,10.23042,-0.203507,0.23942
33340,10.24239,-0.234632,0.229843
33360,10.22803,-0.177171,0.263362
33380,10.23042,-0.234632,0.225055
33400,10.23761,-0.217872,0.263362
33420,10.22564,-0.25618,0.237026
33440,10.23042,-0.177171,0.316035
33460,10.22324,-0.244209,0.217872
33480,10.22085,-0.186748,0.289698
33500,10.21127,-0.232238,0.241814
33520,10.21606,-0.186748,0.263362
33540,10.22324,-0.232238,0.205901
33560,10.22564,-0.169988,0.287304
33580,10.22803,-0.237026,0.25618
33600,10.23042,-0.215478,0.265756
33620,10.22324,-0.225055,0.225055
33640,10.22085,-0.217872,0.251391
33660,10.24479,-0.222661,0.263362
33680,10.23521,-0.217872,0.234632
33700,10.23761,-0.220267,0.241814
33720,10.21845,-0.23942,0.229843
33740,10.21366,-0.172383,0.237026
33760,10.27352,-0.251391,0.234632
33780,10.22564,-0.232238,0.277727
33800,10.22564,-0.222661,0.21069
33820,10.20888,-0.1652,0.244209
33840,10.22324,-0.248997,0.215478
33860,10.22324,-0.169988,0.260968
33880,10.21845,-0.246603,0.232238
33900,10.23042,-0.203507,0.308852
33920,10.24479,-0.237026,0.241814
33940,10.24479,-0.225055,0.299275
33960,10.20648,-0.234632,0.23942
33980,10.21366,-0.160412,0.244209
34000,10.23282,-0.227449,0.248997
34020,10.20169,-0.191536,0.265756
34040,10.24239,-0.248997,0.253785
34060,10.23042,-0.179565,0.260968
34080,10.21845,-0.237026,0.217872
34100,10.24,-0.179565,0.25618
34120,10.21127,-0.222661,0.21069
34140,10.24239,-0.203507,0.265756
34160,10.23521,-0.215478,0.234632
34180,10.22803,-0.189142,0.268151
34200,10.24239,-0.251391,0.232238
34220,10.23042,-0.201113,0.277727
34240,10.20888,-0.198719,0.23942
34260,10.20409,-0.227449,0.253785
34280,10.22085,-0.220267,0.23942
34300,10.25197,-0.191536,0.237026
34320,10.24239,-0.217872,0.260968
34340,10.24,-0.234632,0.241814
34360,10.20409,-0.186748,0.263362
34380,10.23282,-0.220267,0.246603
34400,10.24718,-0.227449,0.275333
34420,10.22324,-0.227449,0.237026
34440,10.22803,-0.201113,0.260968
34460,10.24,-0.237026,0.225055
34480,10.24239,-0.21069,0.289698
34500,10.22324,-0.23942,0.253785
34520,10.22324,-0.203507,0.248997
34540,10.22324,-0.181959,0.213084
34560,10.24,-0.201113,0.258574
34580,10.23282,-0.234632,0.227449
34600,10.22803,-0.189142,0.251391
34620,10.24958,-0.220267,0.227449
34640,10.24239,-0.217872,0.25618
34660,10.22803,-0.186748,0.253785
34680,10.22085,-0.213084,0.270545
34700,10.23042,-0.220267,0.246603
34720,10.21366,-0.222661,0.246603
34740,10.25915,-0.21069,0.272939
34760,10.24239,-0.268151,0.251391
34780,10.22803,-0.217872,0.251391
34800,10.21606,-0.208296,0.232238
34820,10.20169,-0.201113,0.282516
34840,10.24718,-0.237026,0.237026
34860,10.26873,-0.196325,0.258574
34880,10.24239,-0.23942,0.229843
34900,10.23521,-0.19393,0.31364
34920,10.22564,-0.21069,0.225055
34940,10.25915,-0.215478,0.237026
34960,10.22085,-0.19393,0.270545
34980,10.23042,-0.232238,0.268151
35000,10.21606,-0.234632,0.260968
35020,10.25437,-0.232238,0.280122
35040,10.22085,-0.222661,0.225055
35060,10.24,-0.203507,0.272939
35080,10.24,-0.260968,0.23942
35100,10.19691,-0.174777,0.25618
35120,10.24,-0.253785,0.215478
35140,10.24239,-0.19393,0.25618
35160,10.23282,-0.237026,0.234632
35180,10.23282,-0.21069,0.265756
35200,10.20888,-0.186748,0.23942
35220,10.22803,-0.21069,0.232238
35240,10.22324,-0.215478,0.237026
35260,10.22085,-0.196325,0.25618
35280,10.24,-0.215478,0.244209
35300,10.24239,-0.220267,0.251391
35320,10.22803,-0.191536,0.234632
35340,10.24958,-0.237026,0.263362
35360,10.20169,-0.184354,0.306458
35380,10.20409,-0.225055,0.258574
35400,10.26873,-0.208296,0.25618
35420,10.22085,-0.227449,0.222661
35440,10.20888,-0.172383,0.265756
35460,10.23282,-0.227449,0.234632
35480,10.22803,-0.150835,0.277727
35500,10.21845,-0.244209,0.23942
35520,10.22324,-0.21069,0.251391
35540,10.21127,-0.227449,0.232238
35560,10.21366,-0.203507,0.244209
35580,10.24479,-0.191536,0.234632
35600,10.23521,-0.220267,0.253785
35620,10.24479,-0.23942,0.258574
35640,10.23042,-0.217872,0.251391
35660,10.23282,-0.191536,0.268151
35680,10.24,-0.260968,0.253785
35700,10.23521,-0.19393,0.299275
35720,10.22564,-0.215478,0.220267
35740,10.25437,-0.198719,0.275333
35760,10.23521,-0.253785,0.215478
35780,10.25197,-0.213084,0.265756
35800,10.22803,-0.272939,0.225055
35820,10.23042,-0.174777,0.277727
35840,10.22324,-0.215478,0.251391
35860,10.22324,-0.213084,0.28491
35880,10.20409,-0.198719,0.23942
35900,10.25197,-0.215478,0.241814
35920,10.23521,-0.215478,0.258574
35940,10.23521,-0.21069,0.248997
35960,10.23282,-0.198719,0.246603
35980,10.24,-0.227449,0.241814
36000,10.21127,-0.179565,0.251391
36020,10.24479,-0.19393,0.270545
36040,10.22324,-0.234632,0.220267
36060,10.24958,-0.234632,0.282516
36080,10.25197,-0.253785,0.222661
36100,10.22803,-0.169988,0.270545
36120,10.22803,-0.246603,0.227449
36140,10.21845,-0.222661,0.28491
36160,10.21606,-0.215478,0.201113
36180,10.26155,-0.234632,0.289698
36200,10.22564,-0.201113,0.244209
36220,10.22085,-0.225055,0.229843
36240,10.23282,-0.213084,0.265756
36260,10.25197,-0.253785,0.227449
36280,10.21845,-0.19393,0.258574
36300,10.24718,-0.275333,0.229843
36320,10.20888,-0.196325,0.258574
36340,10.23282,-0.213084,0.220267
36360,10.22324,-0.19393,0.263362
36380,10.22324,-0.227449,0.220267
36400,10.23521,-0.213084,0.28491
36420,10.23761,-0.234632,0.232238
36440,10.23042,-0.198719,0.282516
36460,10.22803,-0.191536,0.229843
36480,10.22324,-0.227449,0.289698
36500,10.20169,-0.21069,0.251391
36520,10.23042,-0.222661,0.253785
36540,10.24,-0.208296,0.265756
36560,10.26634,-0.213084,0.258574
36580,10.23761,-0.189142,0.258574
36600,10.25915,-0.244209,0.244209
36620,10.24479,-0.179565,0.268151
36640,10.23282,-0.23942,0.289698
36660,10.25197,-0.203507,0.270545
36680,10.21366,-0.225055,0.213084
36700,10.22803,-0.177171,0.28491
36720,10.23521,-0.244209,0.225055
36740,10.24479,-0.167594,0.248997
36760,10.23761,-0.237026,0.222661
36780,10.23521,-0.215478,0.268151
36800,10.24,-0.208296,0.229843
36820,10.23761,-0.21069,0.294487
36840,10.23042,-0.229843,0.23942
36860,10.24,-0.167594,0.263362
36880,10.22564,-0.222661,0.232238
36900,10.22085,-0.203507,0.253785
36920,10.21845,-0.19393,0.253785
36940,10.24958,-0.244209,0.244209
36960,10.24239,-0.205901,0.244209
36980,10.22085,-0.222661,0.23942
37000,10.24479,-0.220267,0.301669
37020,10.23521,-0.213084,0.253785
37040,10.23282,-0.258574,0.241814
37060,10.22085,-0.177171,0.270545
37080,10.23761,-0.251391,0.23942
37100,10.22564,-0.232238,0.282516
37120,10.21127,-0.201113,0.251391
37140,10.23042,-0.172383,0.275333
37160,10.22324,-0.220267,0.208296
37180,10.23761,-0.162806,0.253785
37200,10.22324,-0.253785,0.217872
37220,10.24718,-0.196325,0.275333
37240,10.22803,-0.191536,0.205901
37260,10.21845,-0.208296,0.287304
37280,10.22803,-0.234632,0.229843
37300,10.22803,-0.186748,0.253785
37320,10.23521,-0.208296,0.25618
37340,10.24,-0.229843,0.248997
37360,10.21606,-0.189142,0.217872
37380,10.23282,-0.241814,0.263362
37400,10.23761,-0.225055,0.268151
37420,10.23042,-0.222661,0.260968
37440,10.24,-0.215478,0.277727
37460,10.23042,-0.241814,0.222661
37480,10.21127,-0.174777,0.289698
37500,10.24479,-0.241814,0.244209
37520,10.22564,-0.169988,0.23942
37540,10.21127,-0.205901,0.229843
37560,10.24718,-0.215478,0.277727
37580,10.21845,-0.222661,0.23942
37600,10.22564,-0.203507,0.275333
37620,10.24,-0.23942,0.234632
37640,10.22085,-0.203507,0.253785
37660,10.19691,-0.19393,0.215478
37680,10.23521,-0.251391,0.263362
37700,10.20409,-0.184354,0.272939
37720,10.23282,-0.196325,0.229843
37740,10.25437,-0.222661,0.258574
37760,10.24,-0.227449,0.246603
37780,10.22803,-0.196325,0.275333
37800,10.23761,-0.260968,0.263362
37820,10.21845,-0.181959,0.275333
37840,10.24239,-0.23942,0.237026
37860,10.25676,-0.198719,0.277727
37880,10.20409,-0.21069,0.232238
37900,10.20648,-0.169988,0.265756
37920,10.23521,-0.251391,0.244209
37940,10.24,-0.186748,0.272939
37960,10.22564,-0.225055,0.244209
37980,10.25437,-0.23942,0.287304
38000,10.21127,-0.213084,0.215478
38020,10.18972,-0.203507,0.253785
38040,10.23761,-0.220267,0.265756
38060,10.22564,-0.213084,0.237026
38080,10.24239,-0.215478,0.265756
38100,10.25437,-0.227449,0.258574
38120,10.22564,-0.215478,0.241814
38140,10.22803,-0.198719,0.280122
38160,10.23761,-0.265756,0.23942
38180,10.20888,-0.184354,0.280122
38200,10.20409,-0.215478,0.232238
38220,10.23521,-0.222661,0.292093
38240,10.22564,-0.229843,0.227449
38260,10.24718,-0.184354,0.244209
38280,10.24479,-0.253785,0.222661
38300,10.24239,-0.208296,0.277727
38320,10.22085,-0.205901,0.23942
38340,10.22564,-0.215478,0.277727
38360,10.23521,-0.237026,0.23942
38380,10.22324,-0.184354,0.253785
38400,10.23521,-0.213084,0.251391
38420,10.22803,-0.215478,0.263362
38440,10.21127,-0.198719,0.268151
38460,10.23282,-0.227449,0.263362
38480,10.23042,-0.201113,0.275333
38500,10.23042,-0.217872,0.213084
38520,10.24479,-0.220267,0.268151
38540,10.25676,-0.246603,0.248997
38560,10.21606,-0.155623,0.277727
38580,10.22564,-0.232238,0.229843
38600,10.25197,-0.196325,0.287304
38620,10.22803,-0.203507,0.25618
38640,10.23042,-0.217872,0.292093
38660,10.24,-0.229843,0.222661
38680,10.22564,-0.177171,0.268151
38700,10.22085,-0.234632,0.246603
38720,10.23521,-0.215478,0.277727
38740,10.21606,-0.203507,0.244209
38760,10.23521,-0.203507,0.253785
38780,10.23042,-0.232238,0.263362
38800,10.23042,-0.196325,0.253785
38820,10.21845,-0.220267,0.241814
38840,10.24958,-0.253785,0.237026
38860,10.21127,-0.198719,0.251391
38880,10.24479,-0.246603,0.237026
38900,10.23282,-0.229843,0.287304
38920,10.22803,-0.23942,0.229843
38940,10.20648,-0.201113,0.263362
38960,10.21606,-0.289698,0.25618
38980,10.22324,-0.172383,0.25618
39000,10.22564,-0.213084,0.237026
39020,10.23282,-0.23942,0.241814
39040,10.22564,-0.198719,0.227449
39060,10.21845,-0.208296,0.263362
39080,10.24479,-0.25618,0.265756
39100,10.22803,-0.191536,0.275333
39120,10.24479,-0.23942,0.246603
39140,10.22803,-0.23942,0.292093
39160,10.23282,-0.208296,0.232238
39180,10.20888,-0.189142,0.28491
39200,10.22085,-0.253785,0.241814
39220,10.22085,-0.196325,0.258574
39240,10.20648,-0.205901,0.203507
39260,10.23761,-0.201113,0.294487
39280,10.22324,-0.232238,0.248997
39300,10.21366,-0.177171,0.258574
39320,10.24718,-0.234632,0.21069
39340,10.25197,-0.217872,0.258574
39360,10.21845,-0.208296,0.225055
39380,10.23042,-0.215478,0.232238
39400,10.21606,-0.215478,0.241814
39420,10.23521,-0.179565,0.248997
39440,10.22085,-0.217872,0.268151
39460,10.25197,-0.268151,0.25618
39480,10.24,-0.1652,0.244209
39500,10.22324,-0.237026,0.246603
39520,10.23042,-0.241814,0.263362
39540,10.23761,-0.237026,0.232238
39560,10.21127,-0.169988,0.268151
39580,10.23042,-0.25618,0.184354
39600,10.21606,-0.181959,0.272939
39620,10.22324,-0.196325,0.229843
39640,10.25197,-0.196325,0.275333
39660,10.24718,-0.227449,0.21069
39680,10.22803,-0.177171,0.253785
39700,10.21845,-0.241814,0.237026
39720,10.21845,-0.205901,0.263362
39740,10.22803,-0.184354,0.208296
39760,10.20648,-0.189142,0.275333
39780,10.22324,-0.227449,0.227449
39800,10.24239,-0.191536,0.241814
39820,10.20169,-0.203507,0.241814
39840,10.24958,-0.246603,0.222661
39860,10.22564,-0.186748,0.251391
39880,10.23282,-0.222661,0.263362
39900,10.23282,-0.222661,0.265756
39920,10.24958,-0.251391,0.237026
39940,10.20888,-0.1652,0.296881
39960,10.23521,-0.253785,0.225055
39980,10.24718,-0.201113,0.304064
40000,10.20169,-0.241814,0.217872
40020,10.23042,-0.196325,0.296881
40040,10.21845,-0.222661,0.234632
40060,10.24958,-0.215478,0.294487
40080,10.22803,-0.227449,0.217872
40100,10.22564,-0.198719,0.277727
40120,10.21606,-0.258574,0.248997
40140,10.21606,-0.21069,0.244209
40160,10.22564,-0.203507,0.246603
40180,10.23042,-0.21069,0.251391
40200,10.23042,-0.19393,0.258574
40220,10.22564,-0.203507,0.241814
40240,10.23042,-0.215478,0.25618
40260,10.23761,-0.246603,0.25618
40280,10.24239,-0.203507,0.292093
40300,10.24958,-0.241814,0.246603
40320,10.22564,-0.208296,0.280122
40340,10.21606,-0.227449,0.220267
40360,10.23042,-0.198719,0.260968
40380,10.22085,-0.234632,0.222661
40400,10.23042,-0.172383,0.268151
40420,10.22564,-0.258574,0.227449
40440,10.24239,-0.203507,0.244209
40460,10.20409,-0.203507,0.217872
40480,10.21127,-0.222661,0.272939
40500,10.23761,-0.241814,0.23942
40520,10.21366,-0.181959,0.270545
40540,10.23282,-0.215478,0.23942
40560,10.23042,-0.225055,0.260968
40580,10.21845,-0.191536,0.246603
40600,10.26394,-0.248997,0.227449
40620,10.24,-0.215478,0.241814
40640,10.21127,-0.222661,0.232238
40660,10.23282,-0.215478,0.263362
40680,10.25676,-0.244209,0.227449
40700,10.22085,-0.169988,0.272939
40720,10.21127,-0.241814,0.260968
40740,10.23521,-0.208296,0.292093
40760,10.22803,-0.220267,0.225055
40780,10.22324,-0.205901,0.270545
40800,10.23521,-0.232238,0.217872
40820,10.23282,-0.189142,0.270545
40840,10.24479,-0.220267,0.234632
40860,10.24718,-0.225055,0.248997
40880,10.22564,-0.19393,0.248997
40900,10.23521,-0.198719,0.258574
40920,10.24958,-0.232238,0.23942
40940,10.23042,-0.203507,0.23942
40960,10.22564,-0.215478,0.277727
40980,10.24479,-0.234632,0.244209
41000,10.22085,-0.177171,0.275333
41020,10.22324,-0.215478,0.253785
41040,10.22085,-0.208296,0.232238
41060,10.25676,-0.227449,0.282516
41080,10.24239,-0.234632,0.282516
41100,10.21606,-0.19393,0.260968
41120,10.23761,-0.251391,0.234632
41140,10.24479,-0.213084,0.251391
41160,10.22564,-0.215478,0.217872
41180,10.23761,-0.203507,0.263362
41200,10.24,-0.248997,0.220267
41220,10.21606,-0.150835,0.282516
41240,10.23761,-0.222661,0.263362
41260,10.27831,-0.191536,0.265756
41280,10.23282,-0.217872,0.227449
41300,10.24,-0.21069,0.25618
41320,10.22803,-0.227449,0.248997
41340,10.22085,-0.205901,0.275333
41360,10.23282,-0.21069,0.253785
41380,10.23761,-0.237026,0.277727
41400,10.22564,-0.198719,0.251391
41420,10.23761,-0.234632,0.229843
41440,10.24479,-0.205901,0.248997
41460,10.23282,-0.203507,0.229843
41480,10.24958,-0.215478,0.280122
41500,10.24958,-0.25618,0.222661
41520,10.1993,-0.1652,0.237026
41540,10.21127,-0.241814,0.237026
41560,10.23282,-0.217872,0.292093
41580,10.21127,-0.213084,0.215478
41600,10.24718,-0.177171,0.263362
41620,10.29507,-0.251391,0.227449
41640,10.23521,-0.201113,0.251391
41660,10.20888,-0.213084,0.229843
41680,10.21366,-0.208296,0.265756
41700,10.24239,-0.23942,0.258574
41720,10.23761,-0.198719,0.234632
41740,10.21845,-0.217872,0.246603
41760,10.24,-0.23942,0.253785
41780,10.23042,-0.186748,0.251391
41800,10.24958,-0.217872,0.263362
41820,10.24958,-0.208296,0.260968
41840,10.22324,-0.229843,0.23942
41860,10.22803,-0.189142,0.287304
41880,10.24239,-0.25618,0.222661
41900,10.21606,-0.174777,0.237026
41920,10.22803,-0.23942,0.215478
41940,10.23521,-0.205901,0.275333
41960,10.23521,-0.225055,0.246603
41980,10.22564,-0.174777,0.251391
42000,10.24958,-0.244209,0.227449
42020,10.23042,-0.162806,0.275333
42040,10.21845,-0.225055,0.234632
42060,10.24479,-0.220267,0.282516
42080,10.20888,-0.205901,0.184354
42100,10.23761,-0.203507,0.253785
42120,10.25197,-0.25618,0.246603
42140,10.22564,-0.196325,0.268151
42160,10.21845,-0.201113,0.234632
42180,10.23761,-0.217872,0.244209
42200,10.21366,-0.196325,0.241814
42220,10.22803,-0.201113,0.251391
42240,10.24239,-0.232238,0.23942
42260,10.24,-0.232238,0.217872
42280,10.23521,-0.213084,0.270545
42300,10.24479,-0.258574,0.232238
42320,10.23521,-0.208296,0.275333
42340,10.22324,-0.220267,0.23942
42360,10.22324,-0.196325,0.25618
42380,10.23282,-0.234632,0.215478
42400,10.22564,-0.167594,0.234632
42420,10.21845,-0.237026,0.234632
42440,10.21845,-0.227449,0.282516
42460,10.21845,-0.201113,0.232238
42480,10.21845,-0.196325,0.251391
42500,10.24,-0.229843,0.232238
42520,10.23282,-0.196325,0.248997
42540,10.21127,-0.205901,0.225055
42560,10.23521,-0.234632,0.248997
42580,10.22324,-0.208296,0.260968
42600,10.21366,-0.222661,0.225055
42620,10.23761,-0.229843,0.258574
42640,10.25676,-0.217872,0.241814
42660,10.22803,-0.181959,0.251391
42680,10.24958,-0.258574,0.268151
42700,10.20409,-0.208296,0.246603
42720,10.22324,-0.220267,0.237026
42740,10.25197,-0.179565,0.287304
42760,10.23042,-0.248997,0.227449
42780,10.22803,-0.158017,0.280122
42800,10.22803,-0.246603,0.184354
42820,10.25915,-0.213084,0.25618
42840,10.21845,-0.225055,0.167594
42860,10.21845,-0.191536,0.265756
42880,10.22803,-0.244209,0.251391
42900,10.24239,-0.19393,0.277727
42920,10.21606,-0.213084,0.260968
42940,10.24239,-0.234632,0.248997
42960,10.22085,-0.198719,0.246603
42980,10.22085,-0.21069,0.225055
43000,10.24239,-0.225055,0.260968
43020,10.24718,-0.21069,0.248997
43040,10.22085,-0.217872,0.25618
43060,10.23521,-0.270545,0.234632
43080,10.22564,-0.191536,0.265756
43100,10.21127,-0.234632,0.220267
43120,10.25197,-0.215478,0.277727
43140,10.23042,-0.220267,0.253785
43160,10.24479,-0.177171,0.272939
43180,10.23761,-0.234632,0.220267
43200,10.24479,-0.198719,0.253785
43220,10.1993,-0.21069,0.201113
43240,10.22324,-0.201113,0.287304
43260,10.24479,-0.237026,0.213084
43280,10.23761,-0.217872,0.251391
43300,10.20888,-0.205901,0.25618
43320,10.24,-0.241814,0.234632
43340,10.21606,-0.215478,0.220267
43360,10.21845,-0.196325,0.244209
43380,10.21845,-0.217872,0.263362
43400,10.24,-0.270545,0.246603
43420,10.24239,-0.198719,0.28491
43440,10.23761,-0.246603,0.253785
43460,10.21606,-0.215478,0.260968
43480,10.22085,-0.217872,0.225055
43500,10.22324,-0.19393,0.270545
43520,10.25197,-0.23942,0.232238
43540,10.25676,-0.201113,0.277727
43560,10.22564,-0.225055,0.248997
43580,10.24958,-0.181959,0.258574
43600,10.24,-0.234632,0.237026
43620,10.23042,-0.174777,0.25618
43640,10.23761,-0.229843,0.244209
43660,10.24239,-0.237026,0.263362
43680,10.22803,-0.220267,0.229843
43700,10.21845,-0.198719,0.275333
43720,10.24,-0.215478,0.263362
43740,10.22085,-0.196325,0.25618
43760,10.21845,-0.198719,0.237026
43780,10.22324,-0.253785,0.258574
43800,10.24239,-0.23942,0.260968
43820,10.21366,-0.222661,0.246603
43840,10.23521,-0.217872,0.253785
43860,10.22803,-0.253785,0.21069
43880,10.21606,-0.162806,0.258574
43900,10.25197,-0.234632,0.241814
43920,10.23282,-0.198719,0.270545
43940,10.22564,-0.198719,0.232238
43960,10.24479,-0.222661,0.268151
43980,10.24,-0.237026,0.222661
44000,10.23042,-0.155623,0.280122
44020,10.22803,-0.222661,0.234632
44040,10.21845,-0.198719,0.296881
44060,10.24239,-0.253785,0.23942
44080,10.20409,-0.184354,0.258574
44100,10.21606,-0.186748,0.227449
44120,10.24958,-0.220267,0.270545
44140,10.22085,-0.208296,0.222661
44160,10.23282,-0.19393,0.241814
44180,10.24239,-0.225055,0.237026
44200,10.24,-0.23942,0.258574
44220,10.22324,-0.186748,0.263362
44240,10.25676,-0.248997,0.244209
44260,10.23042,-0.215478,0.265756
44280,10.20888,-0.208296,0.23942
44300,10.20409,-0.198719,0.268151
44320,10.23042,-0.263362,0.220267
44340,10.22324,-0.179565,0.304064
44360,10.21127,-0.217872,0.234632
44380,10.23282,-0.215478,0.292093
44400,10.22085,-0.227449,0.244209
44420,10.22085,-0.19393,0.253785
44440,10.23042,-0.253785,0.215478
44460,10.24,-0.201113,0.234632
44480,10.21606,-0.201113,0.253785
44500,10.22085,-0.21069,0.270545
44520,10.22564,-0.220267,0.253785
44540,10.21845,-0.196325,0.220267
44560,10.21845,-0.205901,0.244209
44580,10.24479,-0.25618,0.246603
44600,10.22564,-0.191536,0.277727
44620,10.24239,-0.234632,0.268151
44640,10.23521,-0.227449,0.23942
44660,10.24479,-0.241814,0.237026
44680,10.21606,-0.184354,0.275333
44700,10.23282,-0.23942,0.222661
44720,10.25915,-0.208296,0.260968
44740,10.20888,-0.198719,0.234632
44760,10.22564,-0.186748,0.272939
44780,10.23282,-0.248997,0.260968
44800,10.22324,-0.196325,0.263362
44820,10.21845,-0.227449,0.234632
44840,10.23761,-0.23942,0.272939
44860,10.22803,-0.220267,0.237026
44880,10.21127,-0.181959,0.251391
44900,10.20169,-0.222661,0.275333
44920,10.23282,-0.232238,0.241814
44940,10.20169,-0.174777,0.258574
44960,10.23042,-0.222661,0.222661
44980,10.22324,-0.234632,0.244209
45000,10.24,-0.23942,0.208296
45020,10.22324,-0.196325,0.277727
45040,10.24718,-0.282516,0.248997
45060,10.23521,-0.198719,0.282516
45080,10.23042,-0.229843,0.229843
45100,10.25676,-0.213084,0.280122
45120,10.23521,-0.244209,0.237026
45140,10.23761,-0.172383,0.282516
45160,10.21127,-0.229843,0.251391
45180,10.23521,-0.203507,0.241814
45200,10.21606,-0.208296,0.232238
45220,10.23761,-0.21069,0.248997
45240,10.22564,-0.234632,0.244209
45260,10.21845,-0.21069,0.268151
45280,10.20169,-0.208296,0.234632
45300,10.24,-0.220267,0.25618
45320,10.22803,-0.208296,0.268151
45340,10.21606,-0.201113,0.263362
45360,10.24239,-0.229843,0.258574
45380,10.24718,-0.232238,0.237026
45400,10.23761,-0.169988,0.260968
45420,10.21606,-0.248997,0.222661
45440,10.22803,-0.215478,0.282516
45460,10.23282,-0.201113,0.241814
45480,10.22803,-0.169988,0.260968
45500,10.25915,-0.265756,0.234632
45520,10.22564,-0.205901,0.263362
45540,10.23521,-0.208296,0.232238
45560,10.24239,-0.237026,0.277727
45580,10.23761,-0.232238,0.225055
45600,10.22564,-0.19393,0.287304
45620,10.23042,-0.229843,0.229843
45640,10.24,-0.21069,0.229843
45660,10.24,-0.196325,0.253785
45680,10.23282,-0.201113,0.253785
45700,10.21606,-0.251391,0.248997
45720,10.24239,-0.19393,0.241814
45740,10.20888,-0.196325,0.251391
45760,10.24718,-0.248997,0.258574
45780,10.23761,-0.201113,0.260968
45800,10.22564,-0.227449,0.237026
45820,10.22324,-0.198719,0.258574
45840,10.25437,-0.258574,0.253785
45860,10.20648,-0.177171,0.25618
45880,10.20888,-0.232238,0.237026
45900,10.23282,-0.205901,0.304064
45920,10.23042,-0.232238,0.21069
45940,10.25437,-0.160412,0.234632
45960,10.23761,-0.253785,0.201113
45980,10.1993,-0.217872,0.299275
46000,10.20648,-0.196325,0.225055
46020,10.21127,-0.174777,0.265756
46040,10.25437,-0.263362,0.208296
46060,10.25437,-0.191536,0.268151
46080,10.20888,-0.208296,0.225055
46100,10.22803,-0.181959,0.272939
46120,10.23042,-0.258574,0.248997
46140,10.23761,-0.181959,0.272939
46160,10.21606,-0.237026,0.234632
46180,10.25437,-0.203507,0.280122
46200,10.22803,-0.205901,0.217872
46220,10.22085,-0.186748,0.241814
46240,10.21127,-0.220267,0.227449
46260,10.23282,-0.237026,0.23942
46280,10.21606,-0.186748,0.222661
46300,10.22324,-0.21069,0.21069
46320,10.24479,-0.229843,0.260968
46340,10.22564,-0.237026,0.237026
46360,10.21127,-0.172383,0.258574
46380,10.27831,-0.272939,0.268151
46400,10.22085,-0.237026,0.296881
46420,10.19691,-0.213084,0.222661
46440,10.19451,-0.169988,0.275333
46460,10.24,-0.251391,0.174777
46480,10.21845,-0.184354,0.244209
46500,10.20409,-0.196325,0.23942
46520,10.22803,-0.191536,0.265756
46540,10.24239,-0.251391,0.241814
46560,10.23761,-0.169988,0.263362
46580,10.22324,-0.203507,0.244209
46600,10.24718,-0.23942,0.268151
46620,10.24718,-0.225055,0.244209
46640,10.23042,-0.184354,0.244209
46660,10.22085,-0.213084,0.23942
46680,10.23521,-0.227449,0.270545
46700,10.22085,-0.196325,0.251391
46720,10.23521,-0.217872,0.251391
46740,10.24718,-0.229843,0.248997
46760,10.23761,-0.23942,0.258574
46780,10.21366,-0.177171,0.260968
46800,10.24239,-0.258574,0.234632
46820,10.23761,-0.232238,0.301669
46840,10.22085,-0.229843,0.241814
46860,10.19691,-0.179565,0.282516
46880,10.23761,-0.260968,0.222661
46900,10.25197,-0.205901,0.296881
46920,10.20888,-0.213084,0.222661
46940,10.22803,-0.179565,0.229843
46960,10.23761,-0.234632,0.19393
46980,10.24479,-0.225055,0.277727
47000,10.21127,-0.203507,0.229843
47020,10.22803,-0.179565,0.272939
47040,10.23761,-0.244209,0.229843
47060,10.24958,-0.174777,0.287304
47080,10.21127,-0.215478,0.213084
47100,10.24479,-0.19393,0.258574
47120,10.22803,-0.241814,0.234632
47140,10.21845,-0.184354,0.28491
47160,10.23042,-0.217872,0.222661
47180,10.26873,-0.237026,0.292093
47200,10.22085,-0.237026,0.234632
47220,10.20409,-0.179565,0.251391
47240,10.20648,-0.227449,0.237026
47260,10.24239,-0.234632,0.246603
47280,10.22324,-0.21069,0.244209
47300,10.24,-0.177171,0.248997
47320,10.24958,-0.217872,0.23942
47340,10.26394,-0.25618,0.258574
47360,10.23761,-0.191536,0.246603
47380,10.22564,-0.234632,0.205901
47400,10.21366,-0.222661,0.270545
47420,10.25197,-0.272939,0.229843
47440,10.22324,-0.186748,0.292093
47460,10.22564,-0.229843,0.229843
47480,10.22085,-0.196325,0.260968
47500,10.24,-0.234632,0.232238
47520,10.24718,-0.181959,0.277727
47540,10.23282,-0.251391,0.203507
47560,10.26634,-0.21069,0.263362
47580,10.25915,-0.220267,0.237026
47600,10.25915,-0.189142,0.275333
47620,10.21845,-0.25618,0.215478
47640,10.23282,-0.208296,0.280122
47660,10.20169,-0.21069,0.232238
47680,10.20888,-0.191536,0.237026
47700,10.22564,-0.232238,0.23942
47720,10.24718,-0.217872,0.241814
47740,10.22085,-0.186748,0.241814
47760,10.23521,-0.205901,0.225055
47780,10.26394,-0.222661,0.258574
47800,10.23282,-0.232238,0.217872
47820,10.21845,-0.186748,0.248997
47840,10.23761,-0.251391,0.222661
47860,10.23042,-0.220267,0.260968
47880,10.20409,-0.220267,0.232238
47900,10.21845,-0.19393,0.263362
47920,10.22564,-0.25618,0.251391
47940,10.19212,-0.174777,0.270545
47960,10.21366,-0.225055,0.21069
47980,10.22324,-0.215478,0.28491
48000,10.24239,-0.253785,0.198719
48020,10.22085,-0.208296,0.253785
48040,10.23521,-0.215478,0.282516
48060,10.22324,-0.217872,0.220267
48080,10.23042,-0.19393,0.263362
48100,10.23761,-0.248997,0.265756
48120,10.22803,-0.213084,0.299275
48140,10.23282,-0.181959,0.23942
48160,10.25676,-0.21069,0.258574
48180,10.23282,-0.225055,0.25618
48200,10.25437,-0.244209,0.251391
48220,10.22803,-0.205901,0.263362
48240,10.23521,-0.260968,0.251391
48260,10.24,-0.222661,0.268151
48280,10.23521,-0.225055,0.229843
48300,10.21845,-0.198719,0.270545
48320,10.24,-0.253785,0.217872
48340,10.23761,-0.174777,0.270545
48360,10.22324,-0.227449,0.232238
48380,10.24718,-0.201113,0.272939
48400,10.24239,-0.220267,0.205901
48420,10.24239,-0.184354,0.246603
48440,10.23521,-0.237026,0.229843
48460,10.23042,-0.196325,0.258574
48480,10.18493,-0.213084,0.213084
48500,10.21845,-0.213084,0.272939
48520,10.23761,-0.222661,0.232238
48540,10.21366,-0.19393,0.241814
48560,10.22564,-0.227449,0.263362
48580,10.25676,-0.253785,0.229843
48600,10.22803,-0.203507,0.270545
48620,10.24718,-0.225055,0.248997
48640,10.26634,-0.222661,0.260968
48660,10.24958,-0.229843,0.241814
48680,10.19691,-0.167594,0.282516
48700,10.23761,-0.232238,0.227449
48720,10.22803,-0.191536,0.282516
48740,10.21127,-0.213084,0.196325
48760,10.21366,-0.213084,0.275333
48780,10.24958,-0.241814,0.25618
48800,10.21127,-0.179565,0.253785
48820,10.21606,-0.232238,0.215478
48840,10.23521,-0.23942,0.265756
48860,10.23521,-0.215478,0.217872
48880,10.22085,-0.186748,0.246603
48900,10.23282,-0.232238,0.244209
48920,10.22564,-0.215478,0.253785
48940,10.22324,-0.181959,0.229843
48960,10.23042,-0.248997,0.227449
48980,10.24479,-0.217872,0.268151
49000,10.21845,-0.225055,0.25618
49020,10.22564,-0.246603,0.222661
49040,10.24718,-0.203507,0.258574
49060,10.24,-0.21069,0.234632
49080,10.24239,-0.19393,0.289698
49100,10.23042,-0.246603,0.237026
49120,10.22085,-0.186748,0.253785
49140,10.23042,-0.225055,0.213084
49160,10.23761,-0.217872,0.246603
49180,10.22085,-0.19393,0.248997
49200,10.24958,-0.225055,0.260968
49220,10.22803,-0.225055,0.253785
49240,10.21606,-0.198719,0.25618
49260,10.21606,-0.198719,0.234632
49280,10.25197,-0.227449,0.260968
49300,10.23282,-0.19393,0.280122
49320,10.24,-0.234632,0.234632
49340,10.24239,-0.222661,0.263362
49360,10.23042,-0.225055,0.208296
49380,10.21127,-0.172383,0.280122
49400,10.24,-0.246603,0.203507
49420,10.24958,-0.179565,0.258574
49440,10.22085,-0.217872,0.227449
49460,10.23761,-0.201113,0.25618
49480,10.22803,-0.232238,0.21069
49500,10.21366,-0.1652,0.263362
49520,10.23042,-0.227449,0.234632
49540,10.23521,-0.241814,0.268151
49560,10.20888,-0.205901,0.246603
49580,10.22324,-0.21069,0.241814
49600,10.23761,-0.232238,0.237026
49620,10.20648,-0.203507,0.248997
49640,10.21606,-0.205901,0.268151
49660,10.25915,-0.244209,0.258574
49680,10.23761,-0.196325,0.246603
49700,10.23282,-0.225055,0.241814
49720,10.23282,-0.229843,0.287304
49740,10.24479,-0.237026,0.23942
49760,10.21845,-0.196325,0.263362
49780,10.22564,-0.241814,0.222661
49800,10.23761,-0.205901,0.263362
49820,10.19212,-0.225055,0.213084
49840,10.23282,-0.220267,0.294487
49860,10.23761,-0.248997,0.227449
49880,10.21606,-0.189142,0.287304
49900,10.21606,-0.203507,0.270545
49920,10.24,-0.213084,0.28491
49940,10.23282,-0.213084,0.21069
49960,10.21127,-0.203507,0.263362
49980,10.22803,-0.244209,0.251391
50000,10.24479,-0.213084,0.241814
50020,10.25676,-0.246603,0.237026
50040,10.23282,-0.19393,0.268151
50060,10.24718,-0.232238,0.229843
50080,10.25197,-0.220267,0.268151
50100,10.22324,-0.225055,0.217872
50120,10.21366,-0.184354,0.287304
50140,10.23761,-0.229843,0.215478
50160,10.23042,-0.177171,0.258574
50180,10.21845,-0.215478,0.227449
50200,10.23521,-0.21069,0.294487
50220,10.24718,-0.227449,0.217872
50240,10.22803,-0.186748,0.268151
50260,10.21845,-0.229843,0.244209
50280,10.21845,-0.201113,0.275333
50300,10.21127,-0.208296,0.237026
50320,10.24,-0.229843,0.280122
50340,10.22324,-0.213084,0.217872
50360,10.21845,-0.203507,0.237026
50380,10.23761,-0.237026,0.268151
50400,10.25197,-0.241814,0.25618
50420,10.23761,-0.205901,0.241814
50440,10.23042,-0.263362,0.253785
50460,10.23282,-0.208296,0.263362
50480,10.21366,-0.229843,0.215478
50500,10.22085,-0.179565,0.277727
50520,10.23282,-0.222661,0.23942
50540,10.21845,-0.177171,0.280122
50560,10.22324,-0.248997,0.227449
50580,10.24,-0.19393,0.287304
50600,10.23042,-0.191536,0.229843
50620,10.24239,-0.215478,0.282516
50640,10.21127,-0.237026,0.244209
50660,10.22803,-0.186748,0.23942
50680,10.22803,-0.234632,0.263362
50700,10.24,-0.203507,0.253785
50720,10.22324,-0.196325,0.227449
50740,10.24718,-0.244209,0.237026
50760,10.25437,-0.21069,0.260968
50780,10.24239,-0.220267,0.201113
50800,10.23282,-0.215478,0.25618
50820,10.23521,-0.248997,0.232238
50840,10.21127,-0.198719,0.268151
50860,10.21127,-0.248997,0.227449
50880,10.23761,-0.19393,0.270545
50900,10.23282,-0.217872,0.208296
50920,10.24958,-0.203507,0.260968
50940,10.22803,-0.229843,0.248997
50960,10.24,-0.186748,0.251391
50980,10.24,-0.237026,0.232238
51000,10.24239,-0.208296,0.237026
51020,10.22564,-0.208296,0.244209
51040,10.23042,-0.21069,0.234632
51060,10.24718,-0.25618,0.225055
51080,10.24479,-0.196325,0.260968
51100,10.23521,-0.241814,0.246603
51120,10.23521,-0.213084,0.260968
51140,10.22085,-0.225055,0.244209
51160,10.22085,-0.196325,0.282516
51180,10.20648,-0.244209,0.229843
51200,10.23042,-0.158017,0.294487
51220,10.23761,-0.229843,0.225055
51240,10.24239,-0.222661,0.28491
51260,10.22324,-0.220267,0.229843
51280,10.22564,-0.198719,0.270545
51300,10.23282,-0.234632,0.280122
51320,10.21127,-0.160412,0.280122
51340,10.22324,-0.227449,0.23942
51360,10.24,-0.232238,0.263362
51380,10.21606,-0.174777,0.25618
51400,10.23761,-0.234632,0.260968
51420,10.24,-0.222661,0.275333
51440,10.23761,-0.234632,0.203507
51460,10.23521,-0.196325,0.265756
51480,10.22803,-0.253785,0.213084
51500,10.21366,-0.169988,0.232238
51520,10.21845,-0.248997,0.227449
51540,10.24,-0.215478,0.263362
51560,10.1993,-0.208296,0.234632
51580,10.21366,-0.208296,0.260968
51600,10.24,-0.253785,0.21069
51620,10.23042,-0.184354,0.275333
51640,10.24239,-0.21069,0.23942
51660,10.24479,-0.232238,0.282516
51680,10.22803,-0.203507,0.241814
51700,10.21606,-0.203507,0.253785
51720,10.22324,-0.220267,0.220267
51740,10.22085,-0.189142,0.244209
51760,10.19691,-0.21069,0.258574
51780,10.24,-0.234632,0.232238
51800,10.24479,-0.203507,0.287304
51820,10.23282,-0.234632,0.248997
51840,10.20888,-0.251391,0.260968
51860,10.22564,-0.227449,0.23942
51880,10.23521,-0.196325,0.289698
51900,10.23521,-0.244209,0.21069
51920,10.24479,-0.189142,0.275333
51940,10.1993,-0.21069,0.232238
51960,10.24718,-0.198719,0.277727
51980,10.22085,-0.215478,0.229843
52000,10.22564,-0.19393,0.258574
52020,10.22324,-0.184354,0.260968
52040,10.22324,-0.227449,0.253785
52060,10.23042,-0.21069,0.277727
52080,10.19451,-0.181959,0.232238
52100,10.24239,-0.232238,0.215478
52120,10.24479,-0.232238,0.241814
52140,10.22085,-0.217872,0.241814
52160,10.22803,-0.21069,0.280122
52180,10.25676,-0.265756,0.258574
52200,10.21606,-0.191536,0.292093
52220,10.20409,-0.213084,0.244209
52240,10.22803,-0.217872,0.253785
52260,10.23282,-0.220267,0.244209
52280,10.21127,-0.184354,0.268151
52300,10.24,-0.258574,0.237026
52320,10.21606,-0.198719,0.268151
52340,10.19212,-0.229843,0.227449
52360,10.22085,-0.220267,0.246603
52380,10.21127,-0.237026,0.23942
52400,10.23042,-0.189142,0.275333
52420,10.22564,-0.234632,0.241814
52440,10.23521,-0.189142,0.227449
52460,10.22085,-0.181959,0.229843
52480,10.25197,-0.227449,0.246603
52500,10.24479,-0.177171,0.253785
52520,10.23042,-0.222661,0.246603
52540,10.25437,-0.241814,0.251391
52560,10.24479,-0.217872,0.237026
52580,10.23042,-0.177171,0.263362
52600,10.22803,-0.263362,0.246603
52620,10.23282,-0.205901,0.280122
52640,10.23761,-0.203507,0.227449
52660,10.24,-0.225055,0.296881
52680,10.22085,-0.229843,0.225055
52700,10.22564,-0.169988,0.280122
52720,10.24239,-0.244209,0.220267
52740,10.23521,-0.203507,0.237026
52760,10.20888,-0.201113,0.253785
52780,10.24,-0.232238,0.251391
52800,10.21606,-0.205901,0.229843
52820,10.21366,-0.196325,0.227449
52840,10.23761,-0.220267,0.232238
52860,10.23282,-0.220267,0.203507
52880,10.23761,-0.186748,0.244209
52900,10.23761,-0.260968,0.208296
52920,10.24479,-0.227449,0.251391
52940,10.23042,-0.21069,0.241814
52960,10.22803,-0.215478,0.299275
52980,10.23761,-0.225055,0.227449
53000,10.22085,-0.169988,0.258574
53020,10.21845,-0.21069,0.229843
53040,10.24479,-0.217872,0.253785
53060,10.23282,-0.232238,0.225055
53080,10.22324,-0.181959,0.227449
53100,10.23282,-0.213084,0.213084
53120,10.22085,-0.208296,0.265756
53140,10.23042,-0.179565,0.251391
53160,10.25915,-0.246603,0.260968
53180,10.24,-0.21069,0.23942
53200,10.21366,-0.220267,0.225055
53220,10.22324,-0.227449,0.268151
53240,10.24479,-0.234632,0.222661
53260,10.21606,-0.169988,0.25618
53280,10.22085,-0.241814,0.241814
53300,10.21845,-0.174777,0.241814
53320,10.20648,-0.222661,0.220267
53340,10.24718,-0.222661,0.270545
53360,10.22324,-0.237026,0.23942
53380,10.21845,-0.174777,0.270545
53400,10.22803,-0.241814,0.227449
53420,10.21606,-0.201113,0.268151
53440,10.18972,-0.198719,0.244209
53460,10.23521,-0.213084,0.260968
53480,10.22324,-0.203507,0.241814
53500,10.22803,-0.196325,0.25618
53520,10.26394,-0.251391,0.287304
53540,10.23761,-0.227449,0.222661
53560,10.21366,-0.186748,0.294487
53580,10.22324,-0.246603,0.208296
53600,10.22564,-0.177171,0.275333
53620,10.23042,-0.222661,0.248997
53640,10.24,-0.208296,0.265756
53660,10.21366,-0.215478,0.23942
53680,10.20409,-0.167594,0.272939
53700,10.23042,-0.263362,0.205901
53720,10.23761,-0.203507,0.248997
53740,10.21366,-0.217872,0.229843
53760,10.21845,-0.222661,0.277727
53780,10.24239,-0.229843,0.234632
53800,10.22564,-0.189142,0.272939
53820,10.23282,-0.232238,0.222661
53840,10.24958,-0.19393,0.251391
53860,10.22324,-0.196325,0.265756
53880,10.24239,-0.234632,0.268151
53900,10.24239,-0.208296,0.265756
53920,10.21606,-0.217872,0.220267
53940,10.21845,-0.229843,0.268151
53960,10.25197,-0.237026,0.232238
53980,10.22324,-0.172383,0.268151
54000,10.23042,-0.227449,0.215478
54020,10.22564,-0.244209,0.232238
54040,10.22803,-0.167594,0.260968
54060,10.24479,-0.248997,0.201113
54080,10.24718,-0.191536,0.28491
54100,10.22564,-0.198719,0.225055
54120,10.22085,-0.198719,0.268151
54140,10.23761,-0.234632,0.260968
54160,10.21366,-0.186748,0.237026
54180,10.21366,-0.21069,0.229843
54200,10.24,-0.208296,0.263362
54220,10.23282,-0.184354,0.258574
54240,10.25437,-0.229843,0.258574
54260,10.26155,-0.220267,0.265756
54280,10.22803,-0.201113,0.217872
54300,10.22564,-0.203507,0.25618
54320,10.23761,-0.263362,0.225055
54340,10.20888,-0.179565,0.25618
54360,10.22803,-0.215478,0.222661
54380,10.23761,-0.203507,0.253785
54400,10.23282,-0.220267,0.215478
54420,10.22564,-0.167594,0.277727
54440,10.23761,-0.248997,0.215478
54460,10.24958,-0.189142,0.270545
54480,10.23042,-0.227449,0.222661
54500,10.24479,-0.234632,0.270545
54520,10.22324,-0.208296,0.23942
54540,10.19691,-0.181959,0.292093
54560,10.23282,-0.220267,0.241814
54580,10.22803,-0.213084,0.25618
54600,10.21127,-0.196325,0.215478
54620,10.25676,-0.23942,0.234632
54640,10.24718,-0.237026,0.275333
54660,10.23521,-0.232238,0.241814
54680,10.22324,-0.191536,0.263362
54700,10.24479,-0.270545,0.217872
54720,10.22324,-0.172383,0.244209
54740,10.23042,-0.253785,0.222661
54760,10.24,-0.205901,0.282516
54780,10.22324,-0.205901,0.232238
54800,10.23521,-0.19393,0.260968
54820,10.24479,-0.268151,0.222661
54840,10.22803,-0.19393,0.251391
54860,10.22803,-0.222661,0.237026
54880,10.23761,-0.225055,0.289698
54900,10.22085,-0.215478,0.234632
54920,10.22564,-0.189142,0.25618
54940,10.24479,-0.229843,0.237026
54960,10.24239,-0.205901,0.241814
54980,10.21845,-0.186748,0.270545
55000,10.24239,-0.246603,0.246603
55020,10.23761,-0.181959,0.253785
55040,10.24239,-0.229843,0.213084
55060,10.23042,-0.229843,0.268151
55080,10.21127,-0.217872,0.232238
55100,10.23042,-0.189142,0.251391
55120,10.23521,-0.248997,0.222661
55140,10.23761,-0.181959,0.275333
55160,10.23521,-0.234632,0.227449
55180,10.24479,-0.213084,0.289698
55200,10.25197,-0.208296,0.268151
55220,10.24958,-0.208296,0.280122
55240,10.23042,-0.241814,0.237026
55260,10.21127,-0.189142,0.248997
55280,10.21366,-0.215478,0.241814
55300,10.23761,-0.229843,0.268151
55320,10.20409,-0.181959,0.251391
55340,10.21606,-0.205901,0.253785
55360,10.25437,-0.241814,0.268151
55380,10.22324,-0.217872,0.227449
55400,10.22803,-0.191536,0.25618
55420,10.23042,-0.265756,0.244209
55440,10.21366,-0.191536,0.260968
55460,10.21366,-0.237026,0.232238
55480,10.25915,-0.198719,0.272939
55500,10.22564,-0.227449,0.217872
55520,10.21845,-0.201113,0.25618
55540,10.24239,-0.265756,0.244209
55560,10.23521,-0.191536,0.301669
55580,10.20409,-0.181959,0.234632
55600,10.21606,-0.213084,0.258574
55620,10.20169,-0.19393,0.246603
55640,10.21845,-0.181959,0.275333
55660,10.24718,-0.217872,0.280122
55680,10.22803,-0.186748,0.229843
55700,10.20409,-0.191536,0.260968
55720,10.23521,-0.265756,0.248997
55740,10.24479,-0.19393,0.241814
55760,10.20648,-0.227449,0.248997
55780,10.24239,-0.23942,0.282516
55800,10.22085,-0.241814,0.213084
55820,10.20648,-0.184354,0.280122
55840,10.25676,-0.258574,0.251391
55860,10.23042,-0.177171,0.265756
55880,10.22564,-0.23942,0.222661
55900,10.25676,-0.222661,0.287304
55920,10.22324,-0.220267,0.246603
55940,10.20648,-0.198719,0.275333
55960,10.23042,-0.234632,0.205901
55980,10.22324,-0.21069,0.28491
56000,10.22324,-0.21069,0.234632
56020,10.22324,-0.237026,0.208296
56040,10.22085,-0.189142,0.272939
56060,10.21606,-0.198719,0.237026
56080,10.24718,-0.220267,0.225055
56100,10.23282,-0.198719,0.234632
56120,10.21127,-0.225055,0.23942
56140,10.23521,-0.232238,0.258574
56160,10.24,-0.201113,0.229843
56180,10.23042,-0.222661,0.263362
56200,10.24239,-0.270545,0.244209
56220,10.21845,-0.201113,0.294487
56240,10.22564,-0.222661,0.220267
56260,10.24718,-0.198719,0.277727
56280,10.25676,-0.222661,0.215478
56300,10.24479,-0.186748,0.275333
56320,10.22564,-0.229843,0.227449
56340,10.22324,-0.203507,0.263362
56360,10.21845,-0.208296,0.220267
56380,10.24479,-0.205901,0.270545
56400,10.21606,-0.244209,0.244209
56420,10.20888,-0.189142,0.251391
56440,10.21606,-0.213084,0.241814
56460,10.24,-0.213084,0.263362
56480,10.22564,-0.19393,0.232238
56500,10.22803,-0.222661,0.23942
56520,10.25437,-0.234632,0.275333
56540,10.23282,-0.237026,0.232238
56560,10.22564,-0.201113,0.253785
56580,10.24718,-0.260968,0.241814
56600,10.20888,-0.177171,0.244209
56620,10.22803,-0.234632,0.227449
56640,10.24239,-0.21069,0.263362
56660,10.22564,-0.237026,0.234632
56680,10.23042,-0.184354,0.268151
56700,10.21845,-0.232238,0.208296
56720,10.23521,-0.160412,0.251391
56740,10.23282,-0.220267,0.215478
56760,10.21606,-0.229843,0.253785
56780,10.24718,-0.225055,0.251391
56800,10.23042,-0.184354,0.272939
56820,10.24718,-0.227449,0.23942
56840,10.23521,-0.217872,0.229843
56860,10.22564,-0.184354,0.248997
56880,10.25197,-0.253785,0.268151
56900,10.25197,-0.215478,0.258574
56920,10.25437,-0.208296,0.227449
56940,10.23761,-0.213084,0.275333
56960,10.22324,-0.260968,0.237026
56980,10.19212,-0.172383,0.287304
57000,10.20409,-0.234632,0.222661
57020,10.23521,-0.23942,0.232238
57040,10.20888,-0.203507,0.289698
57060,10.22803,-0.248997,0.23942
57080,10.24239,-0.167594,0.260968
57100,10.23521,-0.232238,0.23942
57120,10.21845,-0.215478,0.292093
57140,10.21845,-0.213084,0.225055
57160,10.24,-0.19393,0.258574
57180,10.22085,-0.227449,0.248997
57200,10.21845,-0.186748,0.268151
57220,10.22324,-0.208296,0.268151
57240,10.24,-0.234632,0.265756
57260,10.22085,-0.189142,0.23942
57280,10.24,-0.217872,0.258574
57300,10.24,-0.21069,0.229843
57320,10.21845,-0.215478,0.23942
57340,10.22324,-0.181959,0.268151
57360,10.23761,-0.258574,0.229843
57380,10.22564,-0.21069,0.260968
57400,10.20888,-0.213084,0.229843
57420,10.23761,-0.213084,0.275333
57440,10.22324,-0.241814,0.220267
57460,10.22324,-0.167594,0.253785
57480,10.22803,-0.23942,0.222661
57500,10.25437,-0.213084,0.248997
57520,10.22803,-0.227449,0.227449
57540,10.22803,-0.196325,0.241814
57560,10.23521,-0.222661,0.225055
57580,10.22085,-0.186748,0.253785
57600,10.22085,-0.229843,0.246603
57620,10.24239,-0.227449,0.248997
57640,10.23282,-0.179565,0.251391
57660,10.22324,-0.225055,0.258574
57680,10.23282,-0.208296,0.272939
57700,10.24,-0.215478,0.251391
57720,10.24239,-0.229843,0.253785
57740,10.25676,-0.258574,0.215478
57760,10.21366,-0.169988,0.258574
57780,10.23761,-0.234632,0.241814
57800,10.24718,-0.19393,0.265756
57820,10.20409,-0.222661,0.196325
57840,10.23282,-0.213084,0.277727
57860,10.23521,-0.23942,0.227449
57880,10.23042,-0.186748,0.289698
57900,10.21845,-0.248997,0.248997
57920,10.24239,-0.229843,0.253785
57940,10.22324,-0.184354,0.217872
57960,10.22324,-0.203507,0.220267
57980,10.23521,-0.222661,0.263362
58000,10.19691,-0.184354,0.237026
58020,10.20888,-0.217872,0.222661
58040,10.23521,-0.191536,0.292093
58060,10.22324,-0.244209,0.222661
58080,10.22564,-0.181959,0.289698
58100,10.24958,-0.234632,0.232238
58120,10.24479,-0.191536,0.292093
58140,10.20409,-0.191536,0.234632
58160,10.22803,-0.215478,0.299275
58180,10.23042,-0.232238,0.232238
58200,10.22324,-0.184354,0.275333
58220,10.20169,-0.220267,0.270545
58240,10.24239,-0.225055,0.248997
58260,10.24239,-0.174777,0.222661
58280,10.23042,-0.220267,0.253785
58300,10.23521,-0.232238,0.260968
58320,10.24239,-0.217872,0.248997
58340,10.22085,-0.184354,0.268151
58360,10.24,-0.263362,0.220267
58380,10.22803,-0.181959,0.275333
58400,10.21366,-0.227449,0.229843
58420,10.22085,-0.213084,0.25618
58440,10.22085,-0.232238,0.232238
58460,10.23042,-0.172383,0.268151
58480,10.22803,-0.244209,0.21069
58500,10.23761,-0.196325,0.289698
58520,10.23761,-0.208296,0.213084
58540,10.21366,-0.225055,0.275333
58560,10.25197,-0.23942,0.217872
58580,10.21366,-0.181959,0.272939
58600,10.23042,-0.21069,0.25618
58620,10.24958,-0.222661,0.265756
58640,10.21606,-0.198719,0.227449
58660,10.23521,-0.217872,0.268151
58680,10.25676,-0.229843,0.287304
58700,10.24479,-0.227449,0.248997
58720,10.21845,-0.201113,0.260968
58740,10.24718,-0.258574,0.23942
58760,10.22803,-0.198719,0.280122
58780,10.21366,-0.227449,0.205901
58800,10.24239,-0.198719,0.237026
58820,10.23761,-0.225055,0.225055
58840,10.23761,-0.167594,0.268151
58860,10.23761,-0.260968,0.225055
58880,10.24,-0.201113,0.28491
58900,10.21127,-0.213084,0.248997
58920,10.24479,-0.232238,0.25618
58940,10.23282,-0.227449,0.244209
58960,10.22324,-0.177171,0.272939
58980,10.20409,-0.205901,0.248997
59000,10.22324,-0.222661,0.251391
59020,10.22564,-0.222661,0.246603
59040,10.25676,-0.215478,0.268151
59060,10.22085,-0.217872,0.244209
59080,10.22324,-0.203507,0.241814
59100,10.24479,-0.253785,0.253785
59120,10.22564,-0.181959,0.296881
59140,10.21845,-0.232238,0.215478
59160,10.23521,-0.201113,0.282516
59180,10.24,-0.227449,0.241814
59200,10.22324,-0.191536,0.265756
59220,10.24958,-0.246603,0.227449
59240,10.24718,-0.177171,0.299275
59260,10.21127,-0.220267,0.251391
59280,10.21127,-0.23942,0.277727
59300,10.22564,-0.217872,0.248997
59320,10.22564,-0.179565,0.251391
59340,10.24958,-0.213084,0.253785
59360,10.24,-0.225055,0.287304
59380,10.20648,-0.19393,0.260968
59400,10.23521,-0.23942,0.248997
59420,10.23761,-0.217872,0.251391
59440,10.22803,-0.234632,0.258574
59460,10.22803,-0.21069,0.260968
59480,10.25676,-0.270545,0.25618
59500,10.22564,-0.201113,0.282516
59520,10.21845,-0.227449,0.205901
59540,10.22085,-0.205901,0.282516
59560,10.22324,-0.222661,0.234632
59580,10.22324,-0.177171,0.277727
59600,10.25197,-0.248997,0.196325
59620,10.24239,-0.198719,0.263362
59640,10.22324,-0.19393,0.196325
59660,10.23042,-0.222661,0.289698
59680,10.23761,-0.234632,0.201113
59700,10.23042,-0.203507,0.244209
59720,10.20169,-0.217872,0.23942
59740,10.23761,-0.232238,0.260968
59760,10.23282,-0.19393,0.251391
59780,10.23282,-0.220267,0.241814
59800,10.23282,-0.234632,0.263362
59820,10.23521,-0.237026,0.237026
59840,10.23521,-0.19393,0.277727
59860,10.24718,-0.25618,0.232238
59880,10.22564,-0.186748,0.296881
59900,10.24239,-0.213084,0.222661
59920,10.24239,-0.186748,0.25618
59940,10.24239,-0.246603,0.227449
59960,10.23282,-0.177171,0.237026
59980,10.20648,-0.201113,0.237026
60000,10.24718,-0.21069,0.270545
60020,10.25197,-0.272939,0.251391
60040,10.21606,-0.19393,0.270545
60060,10.22085,-0.215478,0.227449
60080,10.22324,-0.205901,0.253785
60100,10.23761,-0.251391,0.23942
60120,10.22324,-0.181959,0.258574
60140,10.23521,-0.241814,0.244209
60160,10.24239,-0.21069,0.246603
60180,10.22803,-0.208296,0.220267
60200,10.24,-0.19393,0.272939
60220,10.22085,-0.241814,0.241814
60240,10.23282,-0.205901,0.270545
60260,10.20409,-0.19393,0.234632
60280,10.21606,-0.220267,0.25618
60300,10.21606,-0.241814,0.265756
60320,10.22803,-0.189142,0.268151
60340,10.21845,-0.186748,0.258574
60360,10.25915,-0.23942,0.246603
60380,10.23521,-0.208296,0.265756
60400,10.22085,-0.21069,0.258574
60420,10.23282,-0.19393,0.265756
60440,10.24,-0.251391,0.251391
60460,10.22324,-0.189142,0.28491
60480,10.20409,-0.217872,0.23942
60500,10.22324,-0.21069,0.265756
60520,10.21127,-0.251391,0.234632
60540,10.21845,-0.162806,0.277727
60560,10.20648,-0.225055,0.220267
60580,10.23761,-0.205901,0.277727
60600,10.23042,-0.215478,0.251391
60620,10.23282,-0.179565,0.265756
60640,10.23042,-0.248997,0.237026
60660,10.23761,-0.217872,0.282516
60680,10.21366,-0.203507,0.246603
60700,10.24718,-0.203507,0.268151
60720,10.23282,-0.225055,0.23942
60740,10.24,-0.201113,0.237026
60760,10.23282,-0.205901,0.272939
60780,10.24479,-0.234632,0.258574
60800,10.23282,-0.222661,0.265756
60820,10.23521,-0.208296,0.241814
60840,10.22085,-0.205901,0.275333
60860,10.23521,-0.253785,0.225055
60880,10.24239,-0.191536,0.260968
60900,10.22085,-0.232238,0.220267
60920,10.23521,-0.203507,0.28491
60940,10.23042,-0.244209,0.241814
60960,10.23042,-0.162806,0.28491
60980,10.24,-0.225055,0.232238
61000,10.22324,-0.21069,0.289698
61020,10.21845,-0.1652,0.260968
61040,10.1993,-0.222661,0.232238
61060,10.23521,-0.203507,0.301669
61080,10.22803,-0.225055,0.227449
61100,10.24239,-0.177171,0.265756
61120,10.24958,-0.246603,0.232238
61140,10.22564,-0.191536,0.260968
61160,10.22324,-0.21069,0.225055
61180,10.23521,-0.201113,0.275333
61200,10.24718,-0.244209,0.263362
61220,10.21845,-0.186748,0.260968
61240,10.21127,-0.222661,0.258574
61260,10.24958,-0.217872,0.272939
61280,10.23282,-0.196325,0.251391
61300,10.21606,-0.220267,0.222661
61320,10.24,-0.215478,0.270545
61340,10.25437,-0.232238,0.241814
61360,10.23042,-0.179565,0.272939
61380,10.23521,-0.251391,0.244209
61400,10.23282,-0.217872,0.277727
61420,10.22803,-0.220267,0.232238
61440,10.22564,-0.191536,0.299275
61460,10.23521,-0.246603,0.25618
61480,10.22803,-0.174777,0.277727
61500,10.20888,-0.225055,0.205901
61520,10.26634,-0.215478,0.299275
61540,10.23282,-0.246603,0.229843
61560,10.21606,-0.181959,0.270545
61580,10.21606,-0.225055,0.234632
61600,10.23282,-0.201113,0.260968
61620,10.22085,-0.179565,0.25618
61640,10.22803,-0.220267,0.258574
61660,10.23521,-0.229843,0.23942
61680,10.22564,-0.201113,0.268151
61700,10.20888,-0.213084,0.275333
61720,10.26634,-0.23942,0.253785
61740,10.24958,-0.213084,0.277727
61760,10.24239,-0.215478,0.248997
61780,10.23042,-0.222661,0.263362
61800,10.24239,-0.25618,0.237026
61820,10.21606,-0.177171,0.294487
61840,10.22085,-0.241814,0.241814
61860,10.24718,-0.229843,0.275333
61880,10.22803,-0.225055,0.234632
61900,10.22564,-0.169988,0.25618
61920,10.22564,-0.248997,0.234632
61940,10.24958,-0.19393,0.268151
61960,10.24,-0.205901,0.191536
61980,10.23521,-0.215478,0.246603
62000,10.25197,-0.234632,0.253785
62020,10.22564,-0.189142,0.253785
62040,10.21127,-0.225055,0.237026
62060,10.24958,-0.21069,0.301669
62080,10.23042,-0.213084,0.234632
62100,10.22803,-0.222661,0.208296
62120,10.23761,-0.244209,0.265756
62140,10.23282,-0.222661,0.237026
62160,10.21845,-0.169988,0.260968
62180,10.24479,-0.258574,0.229843
62200,10.22564,-0.227449,0.270545
62220,10.21845,-0.246603,0.23942
62240,10.23042,-0.196325,0.263362
62260,10.22564,-0.23942,0.222661
62280,10.24239,-0.158017,0.251391
62300,10.20409,-0.227449,0.248997
62320,10.26155,-0.222661,0.296881
62340,10.22564,-0.220267,0.23942
62360,10.23521,-0.189142,0.28491
62380,10.23282,-0.227449,0.244209
62400,10.24479,-0.215478,0.282516
62420,10.21366,-0.186748,0.234632
62440,10.23042,-0.220267,0.248997
62460,10.23042,-0.234632,0.25618
62480,10.22803,-0.205901,0.248997
62500,10.20888,-0.191536,0.246603
62520,10.24239,-0.241814,0.241814
62540,10.24239,-0.198719,0.270545
62560,10.22803,-0.217872,0.268151
62580,10.25197,-0.213084,0.282516
62600,10.22564,-0.232238,0.229843
62620,10.20409,-0.181959,0.282516
62640,10.23282,-0.260968,0.232238
62660,10.24958,-0.19393,0.268151
62680,10.21127,-0.203507,0.229843
62700,10.22564,-0.198719,0.248997
62720,10.25676,-0.248997,0.208296
62740,10.21127,-0.169988,0.258574
62760,10.23042,-0.225055,0.237026
62780,10.25197,-0.217872,0.258574
62800,10.23042,-0.234632,0.237026
62820,10.21127,-0.184354,0.244209
62840,10.24,-0.246603,0.234632
62860,10.23042,-0.213084,0.258574
62880,10.21127,-0.179565,0.253785
62900,10.22564,-0.227449,0.246603
62920,10.22803,-0.213084,0.246603
62940,10.26155,-0.232238,0.258574
62960,10.23042,-0.203507,0.265756
62980,10.24958,-0.268151,0.25618
63000,10.22324,-0.19393,0.263362
63020,10.21845,-0.177171,0.296881
63040,10.24,-0.263362,0.241814
63060,10.22564,-0.174777,0.253785
63080,10.1993,-0.215478,0.229843
63100,10.24,-0.208296,0.25618
63120,10.23282,-0.241814,0.234632
63140,10.23521,-0.184354,0.241814
63160,10.22324,-0.208296,0.23942
63180,10.23042,-0.215478,0.23942
63200,10.21366,-0.205901,0.263362
63220,10.23282,-0.215478,0.248997
63240,10.23761,-0.232238,0.23942
63260,10.22564,-0.227449,0.225055
63280,10.22564,-0.177171,0.241814
63300,10.24239,-0.244209,0.241814
63320,10.23042,-0.229843,0.277727
63340,10.23521,-0.225055,0.220267
63360,10.21845,-0.186748,0.299275
63380,10.22564,-0.25618,0.203507
63400,10.22324,-0.186748,0.258574
63420,10.22085,-0.232238,0.213084
63440,10.24479,-0.213084,0.289698
63460,10.21845,-0.23942,0.232238
63480,10.22803,-0.177171,0.263362
63500,10.23042,-0.265756,0.237026
63520,10.21366,-0.203507,0.260968
63540,10.20169,-0.196325,0.241814
63560,10.24,-0.208296,0.282516
63580,10.23761,-0.234632,0.25618
63600,10.22803,-0.201113,0.282516
63620,10.23521,-0.220267,0.277727
63640,10.24239,-0.234632,0.220267
63660,10.21845,-0.174777,0.248997
63680,10.23761,-0.227449,0.258574
63700,10.22085,-0.234632,0.272939
63720,10.21845,-0.234632,0.232238
63740,10.21845,-0.143652,0.260968
63760,10.23761,-0.253785,0.246603
63780,10.24479,-0.184354,0.270545
63800,10.22564,-0.201113,0.23942
63820,10.25437,-0.213084,0.28491
63840,10.24479,-0.23942,0.234632
63860,10.22803,-0.198719,0.268151
63880,10.24,-0.227449,0.232238
63900,10.23282,-0.222661,0.282516
63920,10.22324,-0.208296,0.258574
63940,10.22085,-0.19393,0.263362
63960,10.21606,-0.203507,0.234632
63980,10.23042,-0.208296,0.246603
64000,10.22324,-0.181959,0.246603
64020,10.23521,-0.23942,0.205901
64040,10.22803,-0.160412,0.263362
64060,10.21127,-0.246603,0.232238
64080,10.22085,-0.213084,0.277727
64100,10.21606,-0.232238,0.229843
64120,10.20648,-0.191536,0.272939
64140,10.23761,-0.248997,0.217872
64160,10.23282,-0.19393,0.272939
64180,10.22085,-0.208296,0.229843
64200,10.21366,-0.220267,0.282516
64220,10.24718,-0.220267,0.241814
64240,10.23042,-0.179565,0.277727
64260,10.20888,-0.220267,0.203507
64280,10.23042,-0.222661,0.277727
64300,10.21366,-0.196325,0.23942
64320,10.22564,-0.203507,0.241814
64340,10.24239,-0.205901,0.277727
64360,10.26394,-0.237026,0.246603
64380,10.22564,-0.201113,0.246603
64400,10.23521,-0.248997,0.208296
64420,10.25437,-0.208296,0.263362
64440,10.21606,-0.222661,0.229843
64460,10.21366,-0.174777,0.244209
64480,10.21845,-0.246603,0.229843
64500,10.23042,-0.189142,0.253785
64520,10.22324,-0.215478,0.181959
64540,10.24718,-0.215478,0.263362
64560,10.21606,-0.248997,0.215478
64580,10.24,-0.181959,0.275333
64600,10.20648,-0.220267,0.215478
64620,10.24958,-0.220267,0.265756
64640,10.22803,-0.244209,0.246603
64660,10.22085,-0.181959,0.282516
64680,10.19691,-0.215478,0.248997
64700,10.23521,-0.237026,0.25618
64720,10.21127,-0.196325,0.227449
64740,10.22803,-0.19393,0.268151
64760,10.24958,-0.225055,0.25618
64780,10.23521,-0.244209,0.241814
64800,10.21366,-0.174777,0.265756
64820,10.23282,-0.251391,0.241814
64840,10.23042,-0.232238,0.258574
64860,10.21127,-0.222661,0.220267
64880,10.23521,-0.174777,0.263362
64900,10.24718,-0.23942,0.21069
64920,10.23761,-0.203507,0.253785
64940,10.22085,-0.217872,0.25618
64960,10.23282,-0.201113,0.275333
64980,10.23521,-0.248997,0.222661
65000,10.24,-0.172383,0.258574
65020,10.22324,-0.196325,0.246603
65040,10.22324,-0.241814,0.237026
65060,10.23521,-0.205901,0.28491
65080,10.21845,-0.220267,0.227449
65100,10.22803,-0.198719,0.265756
65120,10.23761,-0.253785,0.215478
65140,10.21606,-0.169988,0.275333
65160,10.22803,-0.21069,0.217872
65180,10.25676,-0.205901,0.294487
65200,10.24958,-0.258574,0.215478
65220,10.23521,-0.1652,0.28491
65240,10.23282,-0.229843,0.220267
65260,10.23521,-0.203507,0.282516
65280,10.23521,-0.205901,0.246603
65300,10.22803,-0.172383,0.28491
65320,10.22803,-0.253785,0.229843
65340,10.23521,-0.201113,0.272939
65360,10.22085,-0.19393,0.225055
65380,10.21845,-0.222661,0.258574
65400,10.22803,-0.227449,0.244209
65420,10.21845,-0.215478,0.244209
65440,10.21127,-0.198719,0.220267
65460,10.25197,-0.253785,0.225055
65480,10.25197,-0.203507,0.263362
65500,10.21366,-0.225055,0.237026
65520,10.23521,-0.196325,0.280122
65540,10.25197,-0.251391,0.237026
65560,10.21606,-0.172383,0.275333
65580,10.22324,-0.232238,0.237026
65600,10.22803,-0.201113,0.294487
65620,10.22564,-0.215478,0.23942
65640,10.24,-0.181959,0.265756
65660,10.24,-0.237026,0.203507
65680,10.23282,-0.227449,0.272939
65700,10.21606,-0.203507,0.220267
65720,10.21366,-0.203507,0.268151
65740,10.21845,-0.23942,0.232238
65760,10.21127,-0.191536,0.258574
65780,10.20648,-0.201113,0.263362
65800,10.24479,-0.229843,0.270545
65820,10.22085,-0.220267,0.251391
65840,10.21845,-0.203507,0.232238
65860,10.22324,-0.203507,0.275333
65880,10.24,-0.253785,0.248997
65900,10.22803,-0.184354,0.277727
65920,10.24239,-0.227449,0.222661
65940,10.23521,-0.227449,0.280122
65960,10.24,-0.225055,0.225055
65980,10.21606,-0.181959,0.246603
66000,10.22085,-0.229843,0.229843
66020,10.21606,-0.201113,0.263362
66040,10.23521,-0.246603,0.213084
66060,10.22085,-0.172383,0.23942
66080,10.22085,-0.234632,0.248997
66100,10.23761,-0.203507,0.294487
66120,10.22324,-0.237026,0.227449
66140,10.23282,-0.191536,0.253785
66160,10.22324,-0.248997,0.208296
66180,10.23521,-0.205901,0.277727
66200,10.22803,-0.198719,0.270545
66220,10.21845,-0.198719,0.287304
66240,10.23761,-0.225055,0.227449
66260,10.24,-0.217872,0.241814
66280,10.21127,-0.189142,0.260968
66300,10.23282,-0.234632,0.225055
66320,10.22324,-0.189142,0.280122
66340,10.24,-0.215478,0.229843
66360,10.21127,-0.215478,0.258574
66380,10.23042,-0.248997,0.234632
66400,10.23521,-0.191536,0.248997
66420,10.20169,-0.217872,0.229843
66440,10.21845,-0.215478,0.258574
66460,10.23761,-0.251391,0.244209
66480,10.23282,-0.158017,0.287304
66500,10.23282,-0.234632,0.237026
66520,10.24958,-0.217872,0.277727
66540,10.24239,-0.229843,0.234632
66560,10.22324,-0.167594,0.272939
66580,10.21366,-0.237026,0.225055
66600,10.25197,-0.213084,0.270545
66620,10.21845,-0.196325,0.23942
66640,10.21845,-0.203507,0.234632
66660,10.19691,-0.225055,0.25618
66680,10.24958,-0.21069,0.229843
66700,10.21845,-0.196325,0.251391
66720,10.25676,-0.253785,0.248997
66740,10.25915,-0.208296,0.251391
66760,10.22324,-0.220267,0.248997
66780,10.22085,-0.237026,0.272939
66800,10.24,-0.251391,0.241814
66820,10.20648,-0.169988,0.268151
66840,10.21606,-0.225055,0.251391
66860,10.24718,-0.208296,0.287304
66880,10.20888,-0.215478,0.244209
66900,10.23042,-0.179565,0.287304
66920,10.24,-0.25618,0.244209
66940,10.23282,-0.191536,0.28491
66960,10.22564,-0.215478,0.246603
66980,10.23042,-0.203507,0.234632
67000,10.23761,-0.21069,0.260968
67020,10.21845,-0.205901,0.244209
67040,10.21845,-0.191536,0.265756
67060,10.23521,-0.23942,0.258574
67080,10.24239,-0.208296,0.248997
67100,10.22803,-0.229843,0.232238
67120,10.23042,-0.196325,0.260968
67140,10.24958,-0.275333,0.205901
67160,10.22085,-0.177171,0.268151
67180,10.23042,-0.21069,0.21069
67200,10.24479,-0.227449,0.272939
67220,10.22803,-0.222661,0.251391
67240,10.23521,-0.160412,0.277727
67260,10.23761,-0.241814,0.196325
67280,10.24,-0.215478,0.277727
67300,10.23282,-0.220267,0.232238
67320,10.22324,-0.220267,0.265756
67340,10.23761,-0.246603,0.227449
67360,10.22564,-0.179565,0.282516
67380,10.22324,-0.205901,0.246603
67400,10.23521,-0.237026,0.251391
67420,10.20648,-0.189142,0.265756
67440,10.23042,-0.198719,0.263362
67460,10.25197,-0.229843,0.258574
67480,10.22803,-0.215478,0.258574
67500,10.23521,-0.201113,0.275333
67520,10.24,-0.251391,0.229843
67540,10.23042,-0.201113,0.280122
67560,10.22085,-0.217872,0.237026
67580,10.21845,-0.191536,0.282516
67600,10.21845,-0.217872,0.244209
67620,10.21606,-0.1652,0.260968
67640,10.23042,-0.246603,0.196325
67660,10.25915,-0.220267,0.272939
67680,10.24,-0.21069,0.246603
67700,10.23042,-0.215478,0.306458
67720,10.24958,-0.246603,0.246603
67740,10.23042,-0.19393,0.260968
67760,10.24,-0.217872,0.248997
67780,10.24239,-0.23942,0.237026
67800,10.23761,-0.196325,0.260968
67820,10.22085,-0.205901,0.213084
67840,10.25197,-0.217872,0.277727
67860,10.24,-0.227449,0.244209
67880,10.20169,-0.196325,0.272939
67900,10.23521,-0.258574,0.234632
67920,10.21127,-0.203507,0.270545
67940,10.21127,-0.213084,0.201113
67960,10.22564,-0.196325,0.289698
67980,10.23761,-0.23942,0.263362
68000,10.23761,-0.169988,0.263362
68020,10.22803,-0.217872,0.260968
68040,10.25437,-0.265756,0.225055
68060,10.22324,-0.1652,0.289698
68080,10.22085,-0.237026,0.220267
68100,10.24239,-0.205901,0.280122
68120,10.21127,-0.220267,0.23942
68140,10.24,-0.21069,0.258574
68160,10.24,-0.251391,0.220267
68180,10.22803,-0.181959,0.268151
68200,10.23282,-0.234632,0.205901
68220,10.24239,-0.208296,0.270545
68240,10.22324,-0.215478,0.227449
68260,10.22564,-0.208296,0.248997
68280,10.24718,-0.215478,0.268151
68300,10.23521,-0.196325,0.25618
68320,10.24718,-0.213084,0.260968
68340,10.25676,-0.237026,0.246603
68360,10.25676,-0.191536,0.296881
68380,10.24239,-0.234632,0.265756
68400,10.23521,-0.21069,0.292093
68420,10.23042,-0.237026,0.246603
68440,10.23282,-0.181959,0.248997
68460,10.24,-0.23942,0.232238
68480,10.22564,-0.172383,0.296881
68500,10.21366,-0.232238,0.225055
68520,10.24958,-0.208296,0.299275
68540,10.20888,-0.213084,0.213084
68560,10.24718,-0.208296,0.251391
68580,10.24479,-0.248997,0.23942
68600,10.23282,-0.189142,0.222661
68620,10.18972,-0.201113,0.25618
68640,10.21606,-0.215478,0.280122
68660,10.23042,-0.222661,0.275333
68680,10.21845,-0.203507,0.229843
68700,10.24958,-0.217872,0.277727
68720,10.23521,-0.225055,0.225055
68740,10.23761,-0.19393,0.227449
68760,10.26634,-0.260968,0.244209
68780,10.21366,-0.179565,0.272939
68800,10.21366,-0.234632,0.196325
68820,10.23761,-0.222661,0.270545
68840,10.22564,-0.201113,0.253785
68860,10.23282,-0.191536,0.275333
68880,10.24,-0.244209,0.201113
68900,10.20409,-0.181959,0.28491
68920,10.21127,-0.208296,0.25618
68940,10.22085,-0.205901,0.275333
68960,10.22324,-0.208296,0.215478
68980,10.21845,-0.201113,0.237026
69000,10.22324,-0.248997,0.222661
69020,10.23042,-0.234632,0.248997
69040,10.23042,-0.213084,0.272939
69060,10.22085,-0.21069,0.23942
69080,10.21845,-0.215478,0.251391
69100,10.22085,-0.23942,0.241814
69120,10.22803,-0.181959,0.268151
69140,10.21127,-0.215478,0.246603
69160,10.24479,-0.248997,0.270545
69180,10.23521,-0.189142,0.265756
69200,10.24239,-0.246603,0.241814
69220,10.26873,-0.234632,0.270545
69240,10.22564,-0.217872,0.275333
69260,10.21845,-0.189142,0.275333
69280,10.23521,-0.251391,0.217872
69300,10.22803,-0.160412,0.248997
69320,10.23042,-0.227449,0.225055
69340,10.23282,-0.208296,0.280122
69360,10.20888,-0.213084,0.227449
69380,10.23282,-0.215478,0.268151
69400,10.22803,-0.225055,0.23942
69420,10.21127,-0.184354,0.246603
69440,10.22085,-0.234632,0.232238
69460,10.23042,-0.232238,0.234632
69480,10.20169,-0.172383,0.260968
69500,10.24958,-0.234632,0.265756
69520,10.25437,-0.220267,0.263362
69540,10.24718,-0.227449,0.227449
69560,10.22564,-0.229843,0.246603
69580,10.25676,-0.227449,0.225055
69600,10.1993,-0.174777,0.282516
69620,10.24479,-0.253785,0.222661
